timestamp_iso,timestamp,event_type,session_code,participant_code,round_number,player_id,id_in_group,group_id,offer_id,member_1,member_2,member_3,allocation_1,allocation_2,allocation_3,accepted_offer
2024-05-14T09:00:55.428009,1715677255.42802,proposal,ykdzfw2h,p8983tf0,1,7,1,3,1,1,1,1,34,33,33,
2024-05-14T09:00:57.292285,1715677257.2922952,proposal,ykdzfw2h,zu5rxx67,1,2,3,2,1,1,1,1,34,33,33,
2024-05-14T09:00:57.759874,1715677257.7598853,proposal,ykdzfw2h,gb3p43e3,1,28,2,10,1,1,1,1,34,33,31,
2024-05-14T09:00:59.995363,1715677259.9953756,proposal,ykdzfw2h,n6p6kpol,1,21,1,7,1,1,1,1,34,33,33,
2024-05-14T09:01:01.551932,1715677261.5519447,proposal,ykdzfw2h,10hb91v0,1,14,1,6,1,1,1,1,60,20,20,
2024-05-14T09:01:01.822532,1715677261.8225439,proposal,ykdzfw2h,7ikal8ir,1,12,1,4,1,1,1,1,40,30,30,
2024-05-14T09:01:04.072622,1715677264.0726323,proposal,ykdzfw2h,gb3p43e3,1,28,2,10,2,1,1,1,34,33,33,
2024-05-14T09:01:04.250786,1715677264.2507973,proposal,ykdzfw2h,icm5jw1w,1,26,3,10,3,1,1,1,34,33,33,
2024-05-14T09:01:10.081066,1715677270.0810764,proposal,ykdzfw2h,rggxlrld,1,1,3,1,1,1,1,1,40,30,30,
2024-05-14T09:01:10.111398,1715677270.1114085,proposal,ykdzfw2h,bxgty49l,1,19,3,7,2,1,1,1,33,33,33,
2024-05-14T09:01:12.323035,1715677272.3230445,proposal,ykdzfw2h,dlal68fq,1,25,3,9,1,1,1,1,33,34,33,
2024-05-14T09:01:16.179440,1715677276.1794538,proposal,ykdzfw2h,93vk2elh,1,22,2,8,1,1,1,1,34,33,33,
2024-05-14T09:01:16.522542,1715677276.5225537,proposal,ykdzfw2h,6ul57k0b,1,8,3,4,2,1,1,1,40,30,30,
2024-05-14T09:01:17.195722,1715677277.1957319,proposal,ykdzfw2h,77a6ed9a,1,3,2,1,2,1,1,1,34,33,33,
2024-05-14T09:01:19.446583,1715677279.446593,proposal,ykdzfw2h,bv1rchfe,1,34,2,12,1,1,1,1,40,30,30,
2024-05-14T09:01:22.184015,1715677282.1840258,proposal,ykdzfw2h,brcpj4zp,1,15,1,5,1,1,1,1,40,30,30,
2024-05-14T09:01:22.736174,1715677282.7361877,proposal,ykdzfw2h,caq3vqi1,1,24,1,8,2,1,1,1,80,10,10,
2024-05-14T09:01:24.543250,1715677284.5432608,proposal,ykdzfw2h,aykj1i6i,1,30,1,10,4,1,1,1,40,30,30,
2024-05-14T09:01:26.166994,1715677286.1670036,proposal,ykdzfw2h,wr4oyk0w,1,16,3,6,2,1,1,1,34,33,33,
2024-05-14T09:01:28.155559,1715677288.15557,proposal,ykdzfw2h,a8gna0pr,1,4,2,2,2,1,1,1,33,34,33,
2024-05-14T09:01:28.995228,1715677288.9952378,proposal,ykdzfw2h,tzz523nu,1,20,3,8,3,1,1,1,34,33,33,
2024-05-14T09:01:29.882433,1715677289.8824444,proposal,ykdzfw2h,qirmcohg,1,23,2,7,3,1,1,1,1,6,5,
2024-05-14T09:01:33.583240,1715677293.5832522,proposal,ykdzfw2h,2175hu1w,1,32,3,12,2,1,1,1,34,33,33,
2024-05-14T09:01:35.589482,1715677295.5894935,proposal,ykdzfw2h,maxxa0b9,1,10,2,4,3,1,1,0,5,5,0,
2024-05-14T09:01:42.719525,1715677302.7195358,proposal,ykdzfw2h,69gxbqoq,1,17,2,5,2,1,1,1,30,40,30,
2024-05-14T09:01:47.052972,1715677307.0529819,proposal,ykdzfw2h,7ikal8ir,1,12,1,4,4,1,1,1,33,33,33,
2024-05-14T09:01:47.263509,1715677307.2635202,proposal,ykdzfw2h,zu5rxx67,1,2,3,2,3,1,1,1,33,33,33,
2024-05-14T09:01:57.064940,1715677317.0649507,proposal,ykdzfw2h,iw6538t5,1,6,1,2,4,1,1,1,25,50,25,
2024-05-14T09:01:57.938097,1715677317.938109,proposal,ykdzfw2h,8v2hfg8c,1,33,1,11,1,1,1,1,40,30,30,
2024-05-14T09:02:01.688262,1715677321.6882744,proposal,ykdzfw2h,6whe0107,1,13,3,5,3,1,1,1,40,30,30,
2024-05-14T09:02:09.317689,1715677329.3177016,proposal,ykdzfw2h,maxxa0b9,1,10,2,4,5,1,1,1,30,30,30,
2024-05-14T09:02:14.324555,1715677334.3245666,proposal,ykdzfw2h,69gxbqoq,1,17,2,5,4,1,1,1,40,30,30,
2024-05-14T09:02:24.070782,1715677344.0707932,proposal,ykdzfw2h,7ikal8ir,1,12,1,4,6,1,1,1,50,40,10,
2024-05-14T09:02:27.743763,1715677347.7437737,proposal,ykdzfw2h,iwrxhwk3,1,36,1,12,3,1,1,1,36,32,32,
2024-05-14T09:02:34.303534,1715677354.3035448,proposal,ykdzfw2h,6ul57k0b,1,8,3,4,7,1,1,1,30,30,30,
2024-05-14T09:02:43.380365,1715677363.3803756,proposal,ykdzfw2h,5ubvbqrt,1,35,2,11,2,1,1,1,30,40,30,
2024-05-14T09:02:46.943812,1715677366.9438233,proposal,ykdzfw2h,6ul57k0b,1,8,3,4,8,1,1,1,50,25,25,
2024-05-14T09:02:58.521470,1715677378.521481,proposal,ykdzfw2h,maxxa0b9,1,10,2,4,9,1,1,1,50,20,30,
2024-05-14T09:03:02.352530,1715677382.3525412,proposal,ykdzfw2h,iw6538t5,1,6,1,2,5,1,1,1,5,5,5,
2024-05-14T09:03:04.970965,1715677384.970976,proposal,ykdzfw2h,10hb91v0,1,14,1,6,3,1,1,1,50,25,25,
2024-05-14T09:03:12.221356,1715677392.221369,proposal,ykdzfw2h,6ul57k0b,1,8,3,4,10,1,1,1,10,45,45,
2024-05-14T09:03:14.280371,1715677394.280386,proposal,ykdzfw2h,u53icqui,1,31,3,11,3,1,1,1,34,33,33,
2024-05-14T09:03:19.635025,1715677399.6350367,proposal,ykdzfw2h,zu5rxx67,1,2,3,2,6,1,1,1,1,1,98,
2024-05-14T09:03:32.784777,1715677412.7847884,proposal,ykdzfw2h,wr4oyk0w,1,16,3,6,4,1,1,1,40,28,28,
2024-05-14T09:03:38.158589,1715677418.1586,proposal,ykdzfw2h,69gxbqoq,1,17,2,5,5,1,1,0,5,5,0,
2024-05-14T09:03:41.630999,1715677421.6310122,proposal,ykdzfw2h,caq3vqi1,1,24,1,8,4,1,1,1,60,20,20,
2024-05-14T09:03:53.190867,1715677433.1908777,proposal,ykdzfw2h,aykj1i6i,1,30,1,10,5,1,1,1,50,25,25,
2024-05-14T09:04:09.607093,1715677449.6071048,proposal,ykdzfw2h,10hb91v0,1,14,1,6,5,1,1,1,42,29,29,
2024-05-14T09:04:12.385513,1715677452.3855226,proposal,ykdzfw2h,69gxbqoq,1,17,2,5,6,1,0,1,5,0,5,
2024-05-14T09:04:37.541134,1715677477.5411458,proposal,ykdzfw2h,aykj1i6i,1,30,1,10,6,1,1,1,55,22,22,
2024-05-14T09:05:18.859785,1715677518.8597949,proposal,ykdzfw2h,aykj1i6i,1,30,1,10,7,1,1,1,60,20,20,
2024-05-14T09:06:50.631158,1715677610.631166,proposal,ykdzfw2h,93vk2elh,2,22,2,8,1,1,1,1,34,33,33,
2024-05-14T09:06:52.097189,1715677612.0971994,proposal,ykdzfw2h,7ikal8ir,2,12,2,3,1,1,1,1,33,33,33,
2024-05-14T09:06:53.280809,1715677613.2808194,proposal,ykdzfw2h,3o2kadzu,2,9,1,4,1,1,1,1,34,33,33,
2024-05-14T09:06:53.982722,1715677613.9827323,proposal,ykdzfw2h,icm5jw1w,2,26,3,10,1,1,1,1,34,33,33,
2024-05-14T09:06:54.367977,1715677614.3679864,proposal,ykdzfw2h,zu5rxx67,2,2,3,2,1,1,1,1,33,33,33,
2024-05-14T09:06:54.385321,1715677614.38533,proposal,ykdzfw2h,qirmcohg,2,23,3,7,1,1,1,1,33,33,33,
2024-05-14T09:06:54.568754,1715677614.5687628,proposal,ykdzfw2h,69gxbqoq,2,17,3,5,1,1,1,1,30,30,40,
2024-05-14T09:06:55.009118,1715677615.0091274,proposal,ykdzfw2h,bv1rchfe,2,34,2,12,1,1,1,1,34,33,33,
2024-05-14T09:06:55.144719,1715677615.1447294,proposal,ykdzfw2h,6whe0107,2,13,1,5,2,1,1,1,50,25,25,
2024-05-14T09:06:55.238052,1715677615.2380633,proposal,ykdzfw2h,aykj1i6i,2,30,1,9,1,1,1,1,50,25,25,
2024-05-14T09:06:56.142073,1715677616.142085,proposal,ykdzfw2h,rggxlrld,2,1,3,1,1,1,1,1,34,33,33,
2024-05-14T09:06:56.529087,1715677616.529098,proposal,ykdzfw2h,gb3p43e3,2,28,2,10,2,1,1,1,34,33,33,
2024-05-14T09:06:57.139312,1715677617.1393197,proposal,ykdzfw2h,tzz523nu,2,20,3,8,2,1,1,1,34,33,33,
2024-05-14T09:06:57.265053,1715677617.2650626,proposal,ykdzfw2h,iwrxhwk3,2,36,2,11,1,1,1,1,40,30,30,
2024-05-14T09:06:58.322954,1715677618.3229656,proposal,ykdzfw2h,p8983tf0,2,7,1,3,2,1,1,1,34,33,33,
2024-05-14T09:06:58.777004,1715677618.777015,proposal,ykdzfw2h,77a6ed9a,2,3,1,2,2,1,1,1,34,33,33,
2024-05-14T09:06:59.899763,1715677619.8997743,proposal,ykdzfw2h,maxxa0b9,2,10,2,4,2,1,1,1,40,40,20,
2024-05-14T09:07:01.134981,1715677621.1349912,proposal,ykdzfw2h,smddi2bm,2,27,1,10,3,1,1,1,34,33,33,
2024-05-14T09:07:05.223062,1715677625.2230728,proposal,ykdzfw2h,brcpj4zp,2,15,3,6,1,1,1,1,34,33,33,
2024-05-14T09:07:05.353539,1715677625.3535514,proposal,ykdzfw2h,6ul57k0b,2,8,3,4,3,1,1,1,30,30,30,
2024-05-14T09:07:05.682385,1715677625.6823988,proposal,ykdzfw2h,bxgty49l,2,19,1,7,2,1,1,1,33,33,33,
2024-05-14T09:07:06.741355,1715677626.7413657,proposal,ykdzfw2h,dlal68fq,2,25,3,9,2,1,1,1,33,34,33,
2024-05-14T09:07:07.549084,1715677627.549098,proposal,ykdzfw2h,qmykdy6l,2,29,2,9,3,1,1,1,34,33,33,
2024-05-14T09:07:07.887234,1715677627.8872447,proposal,ykdzfw2h,275e2ui1,2,18,2,5,3,1,1,1,34,33,33,
2024-05-14T09:07:17.962799,1715677637.9628088,proposal,ykdzfw2h,maxxa0b9,2,10,2,4,4,1,1,1,50,40,10,
2024-05-14T09:07:18.239491,1715677638.2395012,proposal,ykdzfw2h,a8gna0pr,2,4,2,2,3,1,1,1,33,35,32,
2024-05-14T09:07:22.789177,1715677642.7891884,proposal,ykdzfw2h,iw6538t5,2,6,2,1,2,1,1,1,50,25,25,
2024-05-14T09:07:26.322915,1715677646.3229244,proposal,ykdzfw2h,u53icqui,2,31,3,11,2,1,1,1,34,33,33,
2024-05-14T09:07:28.794898,1715677648.7949085,proposal,ykdzfw2h,10hb91v0,2,14,1,6,2,1,1,1,40,30,30,
2024-05-14T09:07:29.902599,1715677649.9026098,proposal,ykdzfw2h,7ikal8ir,2,12,2,3,3,1,1,1,40,30,30,
2024-05-14T09:07:42.892125,1715677662.8921356,proposal,ykdzfw2h,qirmcohg,2,23,3,7,3,1,1,1,33,34,33,
2024-05-14T09:07:43.952637,1715677663.9526477,proposal,ykdzfw2h,maxxa0b9,2,10,2,4,5,1,1,1,20,50,30,
2024-05-14T09:07:48.511636,1715677668.511646,proposal,ykdzfw2h,6ul57k0b,2,8,3,4,6,1,1,1,33,33,33,
2024-05-14T09:07:49.950840,1715677669.9508622,proposal,ykdzfw2h,wr4oyk0w,2,16,2,6,3,1,1,1,37,32,31,
2024-05-14T09:07:59.761227,1715677679.761238,proposal,ykdzfw2h,iw6538t5,2,6,2,1,3,1,1,1,5,5,5,
2024-05-14T09:08:12.161214,1715677692.1612256,proposal,ykdzfw2h,aykj1i6i,2,30,1,9,4,1,1,1,40,30,30,
2024-05-14T09:08:31.015473,1715677711.0154839,proposal,ykdzfw2h,dlal68fq,2,25,3,9,5,1,1,1,36,32,32,
2024-05-14T09:09:19.566095,1715677759.566105,proposal,ykdzfw2h,8v2hfg8c,2,33,1,12,2,1,1,1,40,30,30,
2024-05-14T09:09:21.763400,1715677761.7634115,proposal,ykdzfw2h,10hb91v0,2,14,1,6,4,1,1,1,36,31,33,
2024-05-14T09:09:54.573735,1715677794.573746,proposal,ykdzfw2h,wr4oyk0w,2,16,2,6,5,1,1,1,36,32,32,
2024-05-14T09:10:12.941056,1715677812.9410665,proposal,ykdzfw2h,5ubvbqrt,2,35,1,11,3,1,1,1,36,32,32,
2024-05-14T09:11:02.872334,1715677862.8723464,proposal,ykdzfw2h,aykj1i6i,2,30,1,9,6,1,1,1,90,5,5,
2024-05-14T09:11:21.676241,1715677881.6762505,proposal,ykdzfw2h,10hb91v0,2,14,1,6,6,1,1,0,6,4,0,
2024-05-14T09:13:58.112070,1715678038.1120791,proposal,ykdzfw2h,93vk2elh,3,22,3,7,1,1,1,1,34,33,33,
2024-05-14T09:13:58.289261,1715678038.2892714,proposal,ykdzfw2h,smddi2bm,3,27,2,9,1,1,1,1,34,33,33,
2024-05-14T09:13:58.666604,1715678038.666614,proposal,ykdzfw2h,3o2kadzu,3,9,2,3,1,1,1,1,34,33,33,
2024-05-14T09:13:59.967182,1715678039.9671922,proposal,ykdzfw2h,dlal68fq,3,25,1,10,1,1,1,1,34,33,33,
2024-05-14T09:14:00.647845,1715678040.6478562,proposal,ykdzfw2h,tzz523nu,3,20,2,8,1,1,1,1,34,33,33,
2024-05-14T09:14:00.709405,1715678040.709414,proposal,ykdzfw2h,zu5rxx67,3,2,1,2,1,1,1,1,98,1,1,
2024-05-14T09:14:01.817309,1715678041.8173192,proposal,ykdzfw2h,77a6ed9a,3,3,1,1,1,1,1,1,34,33,33,
2024-05-14T09:14:01.998163,1715678041.9981737,proposal,ykdzfw2h,iw6538t5,3,6,3,2,2,1,1,1,7,7,6,
2024-05-14T09:14:02.034630,1715678042.0346396,proposal,ykdzfw2h,6whe0107,3,13,3,6,1,1,1,1,40,30,30,
2024-05-14T09:14:02.793356,1715678042.7933679,proposal,ykdzfw2h,8v2hfg8c,3,33,3,11,1,1,1,1,34,33,33,
2024-05-14T09:14:03.314003,1715678043.3140137,proposal,ykdzfw2h,aykj1i6i,3,30,3,10,2,1,1,1,30,30,40,
2024-05-14T09:14:04.852524,1715678044.8525362,proposal,ykdzfw2h,gb3p43e3,3,28,3,9,2,1,1,1,34,33,33,
2024-05-14T09:14:05.541107,1715678045.5411181,proposal,ykdzfw2h,icm5jw1w,3,26,2,10,3,1,1,1,34,33,33,
2024-05-14T09:14:05.576015,1715678045.576025,proposal,ykdzfw2h,a8gna0pr,3,4,3,1,2,1,1,1,33,33,33,
2024-05-14T09:14:06.982920,1715678046.9829295,proposal,ykdzfw2h,wmkt6s6s,3,11,1,3,2,1,1,1,70,15,15,
2024-05-14T09:14:07.112035,1715678047.1120458,proposal,ykdzfw2h,maxxa0b9,3,10,3,3,3,1,1,1,33,33,33,
2024-05-14T09:14:07.850667,1715678047.850677,proposal,ykdzfw2h,bv1rchfe,3,34,1,11,2,1,1,1,40,30,30,
2024-05-14T09:14:11.946608,1715678051.946617,proposal,ykdzfw2h,2175hu1w,3,32,2,12,1,1,1,1,34,33,33,
2024-05-14T09:14:12.671116,1715678052.671127,proposal,ykdzfw2h,zu5rxx67,3,2,1,2,3,1,1,1,40,30,30,
2024-05-14T09:14:13.348420,1715678053.3484328,proposal,ykdzfw2h,6ul57k0b,3,8,2,4,1,1,1,1,34,33,33,
2024-05-14T09:14:14.940820,1715678054.940831,proposal,ykdzfw2h,brcpj4zp,3,15,3,5,1,1,1,1,34,33,33,
2024-05-14T09:14:18.040109,1715678058.0401206,proposal,ykdzfw2h,maxxa0b9,3,10,3,3,4,1,1,1,33,34,33,
2024-05-14T09:14:18.782097,1715678058.7821066,proposal,ykdzfw2h,69gxbqoq,3,17,2,5,2,1,1,1,33,34,33,
2024-05-14T09:14:25.774375,1715678065.7743857,proposal,ykdzfw2h,zu5rxx67,3,2,1,2,4,1,1,1,50,25,25,
2024-05-14T09:14:26.964604,1715678066.964619,proposal,ykdzfw2h,10hb91v0,3,14,2,6,2,1,1,1,38,31,31,
2024-05-14T09:14:29.878988,1715678069.878998,proposal,ykdzfw2h,rggxlrld,3,1,2,2,5,1,1,1,34,33,33,
2024-05-14T09:14:39.806272,1715678079.8062835,proposal,ykdzfw2h,275e2ui1,3,18,1,6,3,1,1,1,50,25,25,
2024-05-14T09:14:45.515435,1715678085.5154452,proposal,ykdzfw2h,dlal68fq,3,25,1,10,4,1,1,1,33,33,34,
2024-05-14T09:15:04.969354,1715678104.969364,proposal,ykdzfw2h,6ul57k0b,3,8,2,4,2,1,1,1,40,30,30,
2024-05-14T09:15:05.473106,1715678105.473117,proposal,ykdzfw2h,7ikal8ir,3,12,3,4,3,1,1,1,60,20,20,
2024-05-14T09:15:06.313821,1715678106.3138313,proposal,ykdzfw2h,wmkt6s6s,3,11,1,3,5,1,1,0,7,3,0,
2024-05-14T09:15:11.160967,1715678111.1609771,proposal,ykdzfw2h,wmkt6s6s,3,11,1,3,6,1,0,1,7,0,3,
2024-05-14T09:15:54.020661,1715678154.0206711,proposal,ykdzfw2h,6whe0107,3,13,3,6,4,1,1,1,44,28,28,
2024-05-14T09:16:34.489668,1715678194.4896784,proposal,ykdzfw2h,aykj1i6i,3,30,3,10,5,1,1,1,25,25,50,
2024-05-14T09:17:02.796262,1715678222.7962744,proposal,ykdzfw2h,wmkt6s6s,3,11,1,3,7,1,1,1,60,20,20,
2024-05-14T09:17:40.147210,1715678260.1472204,proposal,ykdzfw2h,caq3vqi1,3,24,1,8,2,1,1,1,44,28,28,
2024-05-14T09:17:48.029858,1715678268.0298688,proposal,ykdzfw2h,aykj1i6i,3,30,3,10,6,1,1,1,5,5,90,
2024-05-14T09:18:39.810951,1715678319.810961,proposal,ykdzfw2h,aykj1i6i,3,30,3,10,7,1,1,1,1,1,98,
2024-05-14T09:21:32.912310,1715678492.9123223,proposal,ykdzfw2h,3o2kadzu,4,9,2,4,1,1,1,1,34,33,33,
2024-05-14T09:21:32.998716,1715678492.9987268,proposal,ykdzfw2h,a8gna0pr,4,4,1,1,1,1,1,1,33,33,33,
2024-05-14T09:21:33.658108,1715678493.6581182,proposal,ykdzfw2h,iw6538t5,4,6,3,1,2,1,1,1,1,1,1,
2024-05-14T09:21:35.167971,1715678495.167981,proposal,ykdzfw2h,77a6ed9a,4,3,2,2,1,1,1,1,34,33,33,
2024-05-14T09:21:35.674877,1715678495.6748865,proposal,ykdzfw2h,tzz523nu,4,20,3,8,1,1,1,1,34,33,33,
2024-05-14T09:21:35.981080,1715678495.9810925,proposal,ykdzfw2h,iwrxhwk3,4,36,3,11,1,1,1,1,34,33,33,
2024-05-14T09:21:36.451703,1715678496.4517136,proposal,ykdzfw2h,smddi2bm,4,27,2,10,1,1,1,1,34,33,33,
2024-05-14T09:21:38.195163,1715678498.195174,proposal,ykdzfw2h,2175hu1w,4,32,3,12,1,1,1,1,34,33,33,
2024-05-14T09:21:38.472663,1715678498.4726732,proposal,ykdzfw2h,dlal68fq,4,25,3,10,2,1,1,1,34,33,33,
2024-05-14T09:21:38.587803,1715678498.587814,proposal,ykdzfw2h,6whe0107,4,13,2,6,1,1,1,1,40,30,30,
2024-05-14T09:21:38.805240,1715678498.8052537,proposal,ykdzfw2h,qmykdy6l,4,29,2,9,1,1,1,1,34,33,33,
2024-05-14T09:21:39.889891,1715678499.8899016,proposal,ykdzfw2h,bxgty49l,4,19,1,8,2,1,1,1,33,33,34,
2024-05-14T09:21:40.412566,1715678500.4125757,proposal,ykdzfw2h,icm5jw1w,4,26,1,10,3,1,1,1,34,33,33,
2024-05-14T09:21:40.659055,1715678500.659065,proposal,ykdzfw2h,wr4oyk0w,4,16,2,5,1,1,1,1,34,33,33,
2024-05-14T09:21:43.704953,1715678503.7049615,proposal,ykdzfw2h,maxxa0b9,4,10,2,3,1,1,1,1,34,33,33,
2024-05-14T09:21:44.024359,1715678504.0243716,proposal,ykdzfw2h,aykj1i6i,4,30,3,9,2,1,1,1,30,30,40,
2024-05-14T09:21:55.215792,1715678515.2158017,proposal,ykdzfw2h,5ubvbqrt,4,35,1,11,2,1,1,1,36,32,32,
2024-05-14T09:21:57.523425,1715678517.5234346,proposal,ykdzfw2h,gb3p43e3,4,28,1,9,3,1,1,1,34,33,33,
2024-05-14T09:22:03.877454,1715678523.8774662,proposal,ykdzfw2h,caq3vqi1,4,24,3,7,1,1,1,0,1,9,0,
2024-05-14T09:22:06.472388,1715678526.4723983,proposal,ykdzfw2h,275e2ui1,4,18,1,5,2,1,1,1,50,25,25,
2024-05-14T09:22:09.838801,1715678529.8388102,proposal,ykdzfw2h,7ikal8ir,4,12,1,3,2,1,1,1,70,15,15,
2024-05-14T09:22:18.562437,1715678538.5624495,proposal,ykdzfw2h,qirmcohg,4,23,1,7,2,1,1,1,33,34,33,
2024-05-14T09:22:20.054102,1715678540.054111,proposal,ykdzfw2h,7ikal8ir,4,12,1,3,3,1,1,0,5,5,0,
2024-05-14T09:22:24.853108,1715678544.8531177,proposal,ykdzfw2h,7ikal8ir,4,12,1,3,4,1,0,1,5,0,5,
2024-05-14T09:22:29.953347,1715678549.953358,proposal,ykdzfw2h,caq3vqi1,4,24,3,7,3,1,1,1,33,33,33,
2024-05-14T09:22:42.003751,1715678562.003761,proposal,ykdzfw2h,maxxa0b9,4,10,2,3,5,1,1,1,33,34,33,
2024-05-14T09:22:50.445392,1715678570.4454021,proposal,ykdzfw2h,maxxa0b9,4,10,2,3,6,1,1,1,33,33,34,
2024-05-14T09:23:19.263120,1715678599.2631288,proposal,ykdzfw2h,gb3p43e3,4,28,1,9,4,1,1,0,5,5,0,
2024-05-14T09:23:21.491282,1715678601.4912922,proposal,ykdzfw2h,3o2kadzu,4,9,2,4,2,1,1,1,35,32,33,
2024-05-14T09:23:22.135554,1715678602.135564,proposal,ykdzfw2h,69gxbqoq,4,17,3,5,3,1,1,1,40,30,30,
2024-05-14T09:23:36.958823,1715678616.958834,proposal,ykdzfw2h,qmykdy6l,4,29,2,9,5,1,1,1,33,33,34,
2024-05-14T09:24:13.009859,1715678653.0098693,proposal,ykdzfw2h,7ikal8ir,4,12,1,3,7,1,1,1,60,20,20,
2024-05-14T09:24:18.181174,1715678658.1811845,proposal,ykdzfw2h,6ul57k0b,4,8,3,4,3,1,1,1,36,32,32,
2024-05-14T09:24:18.542933,1715678658.5429466,proposal,ykdzfw2h,275e2ui1,4,18,1,5,4,1,1,1,45,27,27,
2024-05-14T09:24:30.647387,1715678670.6473985,proposal,ykdzfw2h,wr4oyk0w,4,16,2,5,5,1,1,1,42,29,29,
2024-05-14T09:24:54.866960,1715678694.8669705,proposal,ykdzfw2h,275e2ui1,4,18,1,5,6,1,1,1,44,28,28,
2024-05-14T09:27:08.192728,1715678828.192736,proposal,ykdzfw2h,93vk2elh,5,22,2,8,1,1,1,1,34,33,33,
2024-05-14T09:27:10.301490,1715678830.3014996,proposal,ykdzfw2h,a8gna0pr,5,4,3,2,1,1,1,1,33,33,33,
2024-05-14T09:27:11.349781,1715678831.3497915,proposal,ykdzfw2h,bv1rchfe,5,34,1,12,1,1,1,1,36,32,32,
2024-05-14T09:27:11.415736,1715678831.4157448,proposal,ykdzfw2h,iw6538t5,5,6,1,1,1,1,1,1,5,5,5,
2024-05-14T09:27:11.771037,1715678831.771047,proposal,ykdzfw2h,tzz523nu,5,20,2,7,1,1,1,1,34,33,33,
2024-05-14T09:27:11.957654,1715678831.9576633,proposal,ykdzfw2h,wmkt6s6s,5,11,1,4,1,1,1,1,40,30,30,
2024-05-14T09:27:12.465409,1715678832.4654186,proposal,ykdzfw2h,smddi2bm,5,27,2,9,1,1,1,1,33,34,33,
2024-05-14T09:27:12.756084,1715678832.7560933,proposal,ykdzfw2h,iwrxhwk3,5,36,3,11,1,1,1,1,34,33,33,
2024-05-14T09:27:14.070842,1715678834.0708528,proposal,ykdzfw2h,6whe0107,5,13,2,6,1,1,1,1,40,30,30,
2024-05-14T09:27:15.370469,1715678835.3704796,proposal,ykdzfw2h,7ikal8ir,5,12,3,3,1,1,1,1,34,33,33,
2024-05-14T09:27:15.467339,1715678835.4673493,proposal,ykdzfw2h,gb3p43e3,5,28,3,10,1,1,1,1,34,33,33,
2024-05-14T09:27:16.091909,1715678836.0919197,proposal,ykdzfw2h,6ul57k0b,5,8,2,3,2,1,1,1,34,33,33,
2024-05-14T09:27:16.365326,1715678836.3653378,proposal,ykdzfw2h,dlal68fq,5,25,2,10,2,1,1,1,34,33,33,
2024-05-14T09:27:16.765107,1715678836.7651174,proposal,ykdzfw2h,275e2ui1,5,18,3,5,1,1,1,1,34,33,33,
2024-05-14T09:27:16.789621,1715678836.7896316,proposal,ykdzfw2h,icm5jw1w,5,26,1,9,2,1,1,1,40,30,30,
2024-05-14T09:27:17.535244,1715678837.5352542,proposal,ykdzfw2h,aykj1i6i,5,30,3,9,3,1,1,1,25,25,50,
2024-05-14T09:27:19.428569,1715678839.4285803,proposal,ykdzfw2h,77a6ed9a,5,3,3,1,2,1,1,1,34,33,33,
2024-05-14T09:27:20.139539,1715678840.1395502,proposal,ykdzfw2h,zu5rxx67,5,2,2,1,3,1,1,1,34,33,33,
2024-05-14T09:27:21.084949,1715678841.0849593,proposal,ykdzfw2h,wr4oyk0w,5,16,1,6,2,1,1,1,50,25,25,
2024-05-14T09:27:21.510325,1715678841.5103393,proposal,ykdzfw2h,5ubvbqrt,5,35,3,12,2,1,1,1,34,33,33,
2024-05-14T09:27:21.611789,1715678841.6117995,proposal,ykdzfw2h,maxxa0b9,5,10,3,4,2,1,1,1,34,33,33,
2024-05-14T09:27:23.984437,1715678843.984447,proposal,ykdzfw2h,n6p6kpol,5,21,1,7,2,1,1,0,6,4,0,
2024-05-14T09:27:33.467256,1715678853.467266,proposal,ykdzfw2h,p8983tf0,5,7,2,4,3,1,1,1,36,32,32,
2024-05-14T09:27:37.954293,1715678857.9543035,proposal,ykdzfw2h,ry0nc01c,5,5,1,2,2,1,1,1,34,33,33,
2024-05-14T09:28:00.901099,1715678880.90111,proposal,ykdzfw2h,10hb91v0,5,14,1,5,2,1,1,1,38,31,31,
2024-05-14T09:28:25.852620,1715678905.8526292,proposal,ykdzfw2h,aykj1i6i,5,30,3,9,4,1,1,1,30,30,40,
2024-05-14T09:28:26.501185,1715678906.5011988,proposal,ykdzfw2h,6whe0107,5,13,2,6,3,1,1,1,44,28,28,
2024-05-14T09:28:43.072410,1715678923.0724204,proposal,ykdzfw2h,wr4oyk0w,5,16,1,6,4,1,1,1,45,28,27,
2024-05-14T09:29:33.315358,1715678973.3153682,proposal,ykdzfw2h,7ikal8ir,5,12,3,3,3,1,1,1,50,5,45,
2024-05-14T09:29:39.555482,1715678979.5554929,proposal,ykdzfw2h,smddi2bm,5,27,2,9,5,1,1,1,34,33,33,
2024-05-14T09:30:17.705350,1715679017.7053602,proposal,ykdzfw2h,6ul57k0b,5,8,2,3,4,1,1,1,50,49,1,
2024-05-14T09:30:33.610574,1715679033.610587,proposal,ykdzfw2h,3o2kadzu,5,9,1,3,5,1,1,1,98,1,1,
2024-05-14T09:30:39.887894,1715679039.8879025,proposal,ykdzfw2h,6ul57k0b,5,8,2,3,6,1,1,1,1,49,50,
2024-05-14T09:31:01.316271,1715679061.3162816,proposal,ykdzfw2h,10hb91v0,5,14,1,5,3,1,1,1,36,32,32,
2024-05-14T09:31:16.799556,1715679076.7995684,proposal,ykdzfw2h,7ikal8ir,5,12,3,3,7,1,1,1,2,49,49,
2024-05-14T09:31:27.726930,1715679087.726941,proposal,ykdzfw2h,3o2kadzu,5,9,1,3,8,1,1,1,1,1,1,
2024-05-14T09:31:28.527277,1715679088.5272865,proposal,ykdzfw2h,caq3vqi1,5,24,3,7,3,1,0,1,7,0,3,
2024-05-14T09:32:45.900567,1715679165.900578,proposal,ykdzfw2h,93vk2elh,6,22,3,7,1,1,1,1,34,33,33,
2024-05-14T09:32:47.410302,1715679167.4103115,proposal,ykdzfw2h,smddi2bm,6,27,2,10,1,1,1,1,34,33,33,
2024-05-14T09:32:47.800003,1715679167.800016,proposal,ykdzfw2h,a8gna0pr,6,4,3,1,1,1,1,1,33,33,33,
2024-05-14T09:32:47.985033,1715679167.9850435,proposal,ykdzfw2h,3o2kadzu,6,9,2,4,1,1,1,1,34,33,33,
2024-05-14T09:32:48.684526,1715679168.684539,proposal,ykdzfw2h,iw6538t5,6,6,3,2,1,1,1,1,5,5,5,
2024-05-14T09:32:48.808137,1715679168.8081474,proposal,ykdzfw2h,icm5jw1w,6,26,2,9,1,1,1,1,34,33,33,
2024-05-14T09:32:49.607673,1715679169.607686,proposal,ykdzfw2h,2175hu1w,6,32,2,11,1,1,1,1,34,33,33,
2024-05-14T09:32:49.694890,1715679169.694903,proposal,ykdzfw2h,p8983tf0,6,7,1,3,1,1,1,1,36,32,32,
2024-05-14T09:32:51.584191,1715679171.5842001,proposal,ykdzfw2h,275e2ui1,6,18,3,6,1,1,1,1,34,33,33,
2024-05-14T09:32:52.118176,1715679172.1181867,proposal,ykdzfw2h,zu5rxx67,6,2,1,1,2,1,1,0,5,5,0,
2024-05-14T09:32:52.740644,1715679172.7406583,proposal,ykdzfw2h,ry0nc01c,6,5,1,2,2,1,1,1,34,33,33,
2024-05-14T09:32:52.938925,1715679172.938936,proposal,ykdzfw2h,6whe0107,6,13,2,5,1,1,1,1,40,30,30,
2024-05-14T09:32:53.464388,1715679173.4644003,proposal,ykdzfw2h,aykj1i6i,6,30,1,10,2,1,1,1,50,25,25,
2024-05-14T09:32:54.507771,1715679174.5077832,proposal,ykdzfw2h,7ikal8ir,6,12,1,4,2,1,1,1,70,15,15,
2024-05-14T09:32:56.340615,1715679176.3406258,proposal,ykdzfw2h,gb3p43e3,6,28,3,9,2,1,1,1,34,33,33,
2024-05-14T09:32:56.922076,1715679176.9220865,proposal,ykdzfw2h,maxxa0b9,6,10,3,3,2,1,0,1,5,0,5,
2024-05-14T09:32:56.955719,1715679176.9557304,proposal,ykdzfw2h,zu5rxx67,6,2,1,1,3,1,0,1,5,0,5,
2024-05-14T09:33:02.597296,1715679182.597308,proposal,ykdzfw2h,6ul57k0b,6,8,2,3,3,1,1,1,34,33,33,
2024-05-14T09:33:03.105828,1715679183.1058407,proposal,ykdzfw2h,tzz523nu,6,20,1,7,2,1,1,0,6,4,0,
2024-05-14T09:33:04.429190,1715679184.429201,proposal,ykdzfw2h,10hb91v0,6,14,1,5,2,1,1,1,34,33,33,
2024-05-14T09:33:06.868932,1715679186.868944,proposal,ykdzfw2h,5ubvbqrt,6,35,3,12,1,1,1,1,34,33,33,
2024-05-14T09:33:07.569524,1715679187.569536,proposal,ykdzfw2h,zu5rxx67,6,2,1,1,4,1,1,1,34,33,33,
2024-05-14T09:33:09.351136,1715679189.351147,proposal,ykdzfw2h,wmkt6s6s,6,11,3,4,3,1,1,1,30,35,35,
2024-05-14T09:33:13.676417,1715679193.6764278,proposal,ykdzfw2h,n6p6kpol,6,21,2,8,1,1,1,1,34,33,33,
2024-05-14T09:33:14.879132,1715679194.879143,proposal,ykdzfw2h,maxxa0b9,6,10,3,3,4,1,1,1,34,33,33,
2024-05-14T09:33:35.061201,1715679215.0612102,proposal,ykdzfw2h,iwrxhwk3,6,36,1,12,2,1,1,1,40,30,30,
2024-05-14T09:33:56.815829,1715679236.8158424,proposal,ykdzfw2h,tzz523nu,6,20,1,7,3,1,0,1,6,0,4,
2024-05-14T09:34:49.817357,1715679289.8173664,proposal,ykdzfw2h,aykj1i6i,6,30,1,10,3,1,1,1,40,30,30,
2024-05-14T09:35:10.868438,1715679310.8684475,proposal,ykdzfw2h,qmykdy6l,6,29,3,10,4,1,1,1,36,32,32,
2024-05-14T09:35:11.938702,1715679311.9387128,proposal,ykdzfw2h,caq3vqi1,6,24,1,8,2,1,1,1,42,29,29,
2024-05-14T09:36:07.422867,1715679367.4228768,proposal,ykdzfw2h,p8983tf0,6,7,1,3,5,1,1,1,34,32,32,
2024-05-14T09:36:15.013773,1715679375.0137842,proposal,ykdzfw2h,aykj1i6i,6,30,1,10,5,1,1,1,90,5,5,
2024-05-14T09:36:49.740631,1715679409.7406418,proposal,ykdzfw2h,iw6538t5,6,6,3,2,3,1,1,1,25,25,25,
2024-05-14T09:36:58.459967,1715679418.45998,proposal,ykdzfw2h,caq3vqi1,6,24,1,8,3,1,0,1,8,0,2,
2024-05-14T11:56:49.591642,1715687809.5916538,proposal,5r4374w0,kmp1r22f,1,13,2,5,1,1,1,1,40,40,20,
2024-05-14T11:56:50.749552,1715687810.7495637,proposal,5r4374w0,sl0ekey1,1,8,2,4,1,1,1,0,50,50,0,
2024-05-14T11:56:51.313374,1715687811.3133812,proposal,5r4374w0,1a434dy2,1,6,3,2,1,1,1,1,35,35,30,
2024-05-14T11:56:57.736521,1715687817.7365327,proposal,5r4374w0,1kh6c4dr,1,9,1,3,1,1,1,1,40,30,30,
2024-05-14T11:56:58.779950,1715687818.7799606,proposal,5r4374w0,hlta2msa,1,21,2,7,1,1,1,1,40,40,20,
2024-05-14T11:56:59.007536,1715687819.0075471,proposal,5r4374w0,ltipsjdv,1,18,1,6,1,1,1,0,50,50,0,
2024-05-14T11:57:02.772125,1715687822.7721379,proposal,5r4374w0,g73l9vdl,1,27,3,9,1,1,1,1,34,33,33,
2024-05-14T11:57:03.747053,1715687823.747065,proposal,5r4374w0,yglobngj,1,25,2,9,2,1,1,0,50,50,0,
2024-05-14T11:57:03.997713,1715687823.997723,proposal,5r4374w0,f15fo3yu,1,11,3,3,2,1,1,1,33,33,33,
2024-05-14T11:57:04.844799,1715687824.8448098,proposal,5r4374w0,kmp1r22f,1,13,2,5,2,1,1,1,45,45,10,
2024-05-14T11:57:05.611015,1715687825.6110263,proposal,5r4374w0,ohwklw50,1,31,3,11,1,1,1,1,80,10,10,
2024-05-14T11:57:08.498915,1715687828.4989257,proposal,5r4374w0,3hy7y8i2,1,15,1,5,3,1,1,1,33,33,33,
2024-05-14T11:57:11.314312,1715687831.3143215,proposal,5r4374w0,wdvxec6n,1,36,1,12,1,1,1,0,60,40,0,
2024-05-14T11:57:13.216324,1715687833.216335,proposal,5r4374w0,lq9jgj3i,1,10,3,4,2,1,1,1,35,30,35,
2024-05-14T11:57:13.418442,1715687833.4184546,proposal,5r4374w0,ka3iiv5c,1,35,1,11,2,1,1,1,40,40,20,
2024-05-14T11:57:14.198673,1715687834.1986847,proposal,5r4374w0,8i7prunh,1,14,2,6,2,1,1,0,50,50,0,
2024-05-14T11:57:15.361733,1715687835.3617444,proposal,5r4374w0,wkfflns4,1,33,2,11,3,1,1,1,40,40,20,
2024-05-14T11:57:17.178090,1715687837.178103,proposal,5r4374w0,bxtwzkk3,1,2,2,2,2,1,1,0,40,60,0,
2024-05-14T11:57:18.042871,1715687838.042881,proposal,5r4374w0,tjyqeoev,1,34,2,12,2,1,1,0,50,50,0,
2024-05-14T11:57:20.359403,1715687840.3594127,proposal,5r4374w0,sjcoa1gv,1,16,3,6,3,1,1,1,40,40,20,
2024-05-14T11:57:21.137600,1715687841.1376116,proposal,5r4374w0,wdb2bmuc,1,7,2,3,3,1,1,0,50,50,0,
2024-05-14T11:57:30.839743,1715687850.8397565,proposal,5r4374w0,ka3iiv5c,1,35,1,11,4,1,1,1,35,35,30,
2024-05-14T11:57:33.399679,1715687853.3996897,proposal,5r4374w0,zlb86qtx,1,19,3,7,2,1,1,1,30,30,30,
2024-05-14T11:57:35.128658,1715687855.12867,proposal,5r4374w0,ohwklw50,1,31,3,11,5,1,1,1,70,15,15,
2024-05-14T11:57:35.232212,1715687855.2322226,proposal,5r4374w0,jpp7s5r6,1,29,1,9,3,1,1,1,23,19,10,
2024-05-14T11:57:37.545397,1715687857.545409,proposal,5r4374w0,yv0td6xe,1,26,2,10,1,1,1,0,40,40,0,
2024-05-14T11:57:42.236047,1715687862.236057,proposal,5r4374w0,2qhev8bl,1,30,3,10,2,1,1,1,34,33,33,
2024-05-14T11:57:46.738486,1715687866.738496,proposal,5r4374w0,5a15tl23,1,32,3,12,3,1,1,1,34,34,32,
2024-05-14T11:57:47.870189,1715687867.8701994,proposal,5r4374w0,yv0td6xe,1,26,2,10,3,1,1,1,40,40,20,
2024-05-14T11:57:53.389172,1715687873.3891826,proposal,5r4374w0,lq9jgj3i,1,10,3,4,3,1,1,1,34,33,33,
2024-05-14T11:57:54.305674,1715687874.3056843,proposal,5r4374w0,ds7gf3vg,1,23,1,7,3,1,1,1,34,34,32,
2024-05-14T11:57:57.054128,1715687877.0541563,proposal,5r4374w0,egh0i91b,1,28,1,10,4,1,1,1,40,30,30,
2024-05-14T11:57:58.995373,1715687878.9953847,proposal,5r4374w0,hljd8j8s,1,5,3,1,1,1,1,1,40,40,20,
2024-05-14T11:57:59.571953,1715687879.571963,proposal,5r4374w0,c1re0k0c,1,3,1,1,2,1,1,1,33,33,34,
2024-05-14T11:58:04.178226,1715687884.178237,proposal,5r4374w0,tjyqeoev,1,34,2,12,4,1,1,1,45,45,10,
2024-05-14T11:58:06.844343,1715687886.8443527,proposal,5r4374w0,yv0td6xe,1,26,2,10,5,1,1,1,30,40,30,
2024-05-14T11:58:09.140278,1715687889.1402876,proposal,5r4374w0,jkojnnx7,1,12,1,4,4,1,1,1,35,35,30,
2024-05-14T11:58:26.986279,1715687906.9862888,proposal,5r4374w0,sjcoa1gv,1,16,3,6,4,1,1,1,45,45,10,
2024-05-14T11:58:30.578257,1715687910.578267,proposal,5r4374w0,egh0i91b,1,28,1,10,6,1,1,1,35,35,30,
2024-05-14T11:58:54.093619,1715687934.0936282,proposal,5r4374w0,wtf9m9iv,1,1,2,1,3,1,1,1,34,33,33,
2024-05-14T11:59:20.256538,1715687960.2565491,proposal,5r4374w0,yv0td6xe,1,26,2,10,7,1,1,1,33,33,33,
2024-05-14T11:59:22.956643,1715687962.956652,proposal,5r4374w0,hljd8j8s,1,5,3,1,4,1,1,1,34,34,32,
2024-05-14T11:59:40.498121,1715687980.4981344,proposal,5r4374w0,jpp7s5r6,1,29,1,9,4,1,1,1,40,35,25,
2024-05-14T11:59:50.543847,1715687990.5438564,proposal,5r4374w0,dtjatgej,1,20,2,8,1,1,1,1,40,40,20,
2024-05-14T12:00:05.651392,1715688005.6514018,proposal,5r4374w0,sjcoa1gv,1,16,3,6,5,1,1,1,30,60,10,
2024-05-14T12:01:13.500026,1715688073.5000355,proposal,5r4374w0,jpp7s5r6,1,29,1,9,5,1,1,1,35,35,30,
2024-05-14T12:02:27.568234,1715688147.5682425,proposal,5r4374w0,ltipsjdv,2,18,1,5,1,1,1,0,50,50,0,
2024-05-14T12:02:27.731459,1715688147.7314699,proposal,5r4374w0,8i7prunh,2,14,2,6,1,1,1,0,50,50,0,
2024-05-14T12:02:27.779378,1715688147.7793927,proposal,5r4374w0,sl0ekey1,2,8,2,4,1,1,1,0,50,50,0,
2024-05-14T12:02:31.010885,1715688151.0108962,proposal,5r4374w0,kmp1r22f,2,13,3,5,2,1,1,1,40,40,20,
2024-05-14T12:02:31.605925,1715688151.6059349,proposal,5r4374w0,hmipyra9,2,4,3,2,1,1,1,1,35,35,30,
2024-05-14T12:02:32.140743,1715688152.1407518,proposal,5r4374w0,1a434dy2,2,6,1,1,1,1,1,1,35,35,30,
2024-05-14T12:02:32.366482,1715688152.3664923,proposal,5r4374w0,wdvxec6n,2,36,1,11,1,1,1,0,50,50,0,
2024-05-14T12:02:35.120625,1715688155.1206355,proposal,5r4374w0,wdb2bmuc,2,7,2,3,1,1,1,0,60,40,0,
2024-05-14T12:02:36.763349,1715688156.7633598,proposal,5r4374w0,2qhev8bl,2,30,1,9,1,1,1,1,33,33,34,
2024-05-14T12:02:36.904247,1715688156.9042556,proposal,5r4374w0,sl0ekey1,2,8,2,4,2,1,1,1,35,35,30,
2024-05-14T12:02:37.105546,1715688157.1055589,proposal,5r4374w0,jpp7s5r6,2,29,2,9,2,1,1,0,50,50,0,
2024-05-14T12:02:37.756619,1715688157.756632,proposal,5r4374w0,ka3iiv5c,2,35,3,11,2,1,1,1,35,35,30,
2024-05-14T12:02:38.014379,1715688158.0143893,proposal,5r4374w0,yv0td6xe,2,26,3,10,1,1,1,1,34,33,33,
2024-05-14T12:02:38.621831,1715688158.6218421,proposal,5r4374w0,sjcoa1gv,2,16,3,6,2,1,1,1,45,45,10,
2024-05-14T12:02:39.111350,1715688159.111361,proposal,5r4374w0,1kh6c4dr,2,9,3,4,3,1,1,1,40,40,20,
2024-05-14T12:02:40.002583,1715688160.0025947,proposal,5r4374w0,ohwklw50,2,31,2,11,3,1,1,1,40,40,20,
2024-05-14T12:02:41.625130,1715688161.6251423,proposal,5r4374w0,3hy7y8i2,2,15,1,6,3,1,1,1,33,33,33,
2024-05-14T12:02:42.691039,1715688162.6910503,proposal,5r4374w0,5a15tl23,2,32,2,12,1,1,1,0,50,50,0,
2024-05-14T12:02:42.706056,1715688162.7060635,proposal,5r4374w0,ds7gf3vg,2,23,2,7,1,1,1,1,34,34,31,
2024-05-14T12:02:43.712241,1715688163.712252,proposal,5r4374w0,zlb86qtx,2,19,3,7,2,1,1,1,34,34,32,
2024-05-14T12:02:45.171284,1715688165.1712947,proposal,5r4374w0,g73l9vdl,2,27,2,10,2,1,1,0,40,60,0,
2024-05-14T12:02:48.637987,1715688168.638,proposal,5r4374w0,wkfflns4,2,33,1,12,2,1,1,1,40,40,20,
2024-05-14T12:02:52.615507,1715688172.6155188,proposal,5r4374w0,egh0i91b,2,28,1,10,3,1,1,1,35,35,30,
2024-05-14T12:02:53.292087,1715688173.2920985,proposal,5r4374w0,lq9jgj3i,2,10,1,4,4,1,1,1,35,35,30,
2024-05-14T12:02:55.108344,1715688175.1083534,proposal,5r4374w0,sjcoa1gv,2,16,3,6,4,1,1,1,40,40,20,
2024-05-14T12:03:06.493800,1715688186.4938097,proposal,5r4374w0,yv0td6xe,2,26,3,10,4,1,1,1,30,35,35,
2024-05-14T12:03:20.488370,1715688200.488382,proposal,5r4374w0,hlta2msa,2,21,2,8,1,1,1,1,34,34,32,
2024-05-14T12:03:25.852809,1715688205.8528192,proposal,5r4374w0,yglobngj,2,25,3,9,3,1,1,1,35,35,30,
2024-05-14T12:03:25.957291,1715688205.9572992,proposal,5r4374w0,dtjatgej,2,20,3,8,2,1,1,1,34,34,32,
2024-05-14T12:03:52.192207,1715688232.1922684,proposal,5r4374w0,tjyqeoev,2,34,3,12,3,1,1,1,45,45,10,
2024-05-14T12:04:31.757411,1715688271.757421,proposal,5r4374w0,ka3iiv5c,2,35,3,11,4,1,1,1,40,35,25,
2024-05-14T12:05:04.230831,1715688304.2308424,proposal,5r4374w0,kmp1r22f,2,13,3,5,3,1,1,1,45,45,10,
2024-05-14T12:06:07.939442,1715688367.9394534,proposal,5r4374w0,yv0td6xe,2,26,3,10,5,1,1,1,40,40,20,
2024-05-14T12:06:15.044143,1715688375.044154,proposal,5r4374w0,yglobngj,2,25,3,9,4,1,1,1,40,40,20,
2024-05-14T12:06:24.171274,1715688384.1712825,proposal,5r4374w0,wtf9m9iv,2,1,2,1,2,1,1,1,1,2,3,
2024-05-14T12:06:39.544923,1715688399.5449333,proposal,5r4374w0,bxtwzkk3,2,2,2,2,2,1,1,1,10,80,10,
2024-05-14T12:08:02.094019,1715688482.0940285,proposal,5r4374w0,sl0ekey1,3,8,1,4,1,1,1,0,50,50,0,
2024-05-14T12:08:04.101815,1715688484.1018236,proposal,5r4374w0,yglobngj,3,25,2,10,1,1,1,0,50,50,0,
2024-05-14T12:08:05.383181,1715688485.3831944,proposal,5r4374w0,ka3iiv5c,3,35,1,11,1,1,1,0,50,50,0,
2024-05-14T12:08:05.928593,1715688485.9286044,proposal,5r4374w0,ltipsjdv,3,18,2,6,1,1,1,0,50,50,0,
2024-05-14T12:08:05.965396,1715688485.9654095,proposal,5r4374w0,5a15tl23,3,32,1,12,1,1,1,1,45,45,10,
2024-05-14T12:08:06.721950,1715688486.7219603,proposal,5r4374w0,wdb2bmuc,3,7,2,4,2,1,1,0,50,50,0,
2024-05-14T12:08:06.765802,1715688486.7658134,proposal,5r4374w0,jkojnnx7,3,12,3,4,3,1,1,1,40,40,20,
2024-05-14T12:08:08.293389,1715688488.2934,proposal,5r4374w0,2qhev8bl,3,30,3,10,2,1,1,1,34,33,33,
2024-05-14T12:08:08.314110,1715688488.3141227,proposal,5r4374w0,1a434dy2,3,6,3,2,1,1,1,1,35,35,30,
2024-05-14T12:08:08.347172,1715688488.3471816,proposal,5r4374w0,1kh6c4dr,3,9,2,3,1,1,1,1,35,35,30,
2024-05-14T12:08:08.550270,1715688488.5502872,proposal,5r4374w0,yv0td6xe,3,26,1,10,3,1,1,0,60,40,0,
2024-05-14T12:08:08.685134,1715688488.6851437,proposal,5r4374w0,lq9jgj3i,3,10,3,3,2,1,1,1,35,35,30,
2024-05-14T12:08:08.777668,1715688488.7776783,proposal,5r4374w0,8i7prunh,3,14,3,6,2,1,1,1,45,45,10,
2024-05-14T12:08:09.182983,1715688489.182991,proposal,5r4374w0,sl0ekey1,3,8,1,4,4,1,1,1,40,40,20,
2024-05-14T12:08:10.451821,1715688490.4518313,proposal,5r4374w0,ohwklw50,3,31,3,12,2,1,1,1,40,40,20,
2024-05-14T12:08:10.661923,1715688490.6619363,proposal,5r4374w0,f15fo3yu,3,11,1,3,3,1,1,1,40,30,30,
2024-05-14T12:08:11.480718,1715688491.480728,proposal,5r4374w0,wdvxec6n,3,36,2,12,3,1,1,0,50,50,0,
2024-05-14T12:08:12.168215,1715688492.1682267,proposal,5r4374w0,2q16a6o8,3,17,1,5,1,1,1,1,45,45,10,
2024-05-14T12:08:14.178890,1715688494.178904,proposal,5r4374w0,kmp1r22f,3,13,1,6,3,1,1,1,42,42,6,
2024-05-14T12:08:15.787296,1715688495.7873101,proposal,5r4374w0,sjcoa1gv,3,16,3,5,2,1,1,1,40,40,20,
2024-05-14T12:08:17.897136,1715688497.8971477,proposal,5r4374w0,hljd8j8s,3,5,1,1,1,1,1,1,35,35,30,
2024-05-14T12:08:18.542411,1715688498.54242,proposal,5r4374w0,g73l9vdl,3,27,1,9,1,1,1,0,60,40,0,
2024-05-14T12:08:19.350995,1715688499.3510041,proposal,5r4374w0,wkfflns4,3,33,3,11,2,1,1,1,45,45,10,
2024-05-14T12:08:19.967033,1715688499.967044,proposal,5r4374w0,ka3iiv5c,3,35,1,11,3,1,1,1,40,40,20,
2024-05-14T12:08:21.934364,1715688501.9343739,proposal,5r4374w0,3hy7y8i2,3,15,2,5,3,1,1,1,33,33,33,
2024-05-14T12:08:28.478190,1715688508.4782004,proposal,5r4374w0,zlb86qtx,3,19,1,8,1,1,1,1,33,33,33,
2024-05-14T12:08:32.569571,1715688512.569583,proposal,5r4374w0,wdvxec6n,3,36,2,12,4,1,1,1,40,40,20,
2024-05-14T12:08:32.904708,1715688512.9047203,proposal,5r4374w0,jpp7s5r6,3,29,3,9,2,1,1,1,40,40,20,
2024-05-14T12:08:35.185321,1715688515.1853302,proposal,5r4374w0,egh0i91b,3,28,2,9,3,1,1,1,45,45,10,
2024-05-14T12:08:46.790267,1715688526.7902768,proposal,5r4374w0,8i7prunh,3,14,3,6,4,1,1,1,40,40,20,
2024-05-14T12:08:53.151484,1715688533.1514928,proposal,5r4374w0,2q16a6o8,3,17,1,5,4,1,1,0,50,50,0,
2024-05-14T12:09:04.472602,1715688544.4726129,proposal,5r4374w0,8i7prunh,3,14,3,6,5,1,1,1,33,33,33,
2024-05-14T12:09:09.171324,1715688549.171333,proposal,5r4374w0,hlta2msa,3,21,2,7,1,1,1,1,34,34,32,
2024-05-14T12:09:14.492429,1715688554.492439,proposal,5r4374w0,wdb2bmuc,3,7,2,4,5,1,1,1,30,30,30,
2024-05-14T12:09:34.748346,1715688574.748356,proposal,5r4374w0,sjcoa1gv,3,16,3,5,5,1,1,1,35,35,30,
2024-05-14T12:09:59.877581,1715688599.8775926,proposal,5r4374w0,kmp1r22f,3,13,1,6,6,1,1,1,48,48,4,
2024-05-14T12:10:08.526921,1715688608.5269313,proposal,5r4374w0,2qhev8bl,3,30,3,10,4,1,1,1,40,40,20,
2024-05-14T12:10:45.188446,1715688645.1884573,proposal,5r4374w0,g73l9vdl,3,27,1,9,4,1,1,0,50,50,0,
2024-05-14T12:10:53.607405,1715688653.6074154,proposal,5r4374w0,bxtwzkk3,3,2,1,2,2,1,1,1,30,40,10,
2024-05-14T12:11:01.919707,1715688661.9197192,proposal,5r4374w0,bxtwzkk3,3,2,1,2,3,1,1,0,30,70,0,
2024-05-14T12:11:09.345960,1715688669.345971,proposal,5r4374w0,2qhev8bl,3,30,3,10,5,1,1,1,43,42,5,
2024-05-14T12:11:31.910135,1715688691.910144,proposal,5r4374w0,bxtwzkk3,3,2,1,2,4,1,1,0,50,50,0,
2024-05-14T12:11:55.964661,1715688715.9646802,proposal,5r4374w0,wdb2bmuc,3,7,2,4,6,1,1,1,34,33,33,
2024-05-14T12:13:57.839887,1715688837.8398979,proposal,5r4374w0,sl0ekey1,4,8,2,4,1,1,1,1,40,40,20,
2024-05-14T12:13:59.827763,1715688839.8277721,proposal,5r4374w0,8i7prunh,4,14,2,6,1,1,1,0,50,50,0,
2024-05-14T12:13:59.841766,1715688839.841775,proposal,5r4374w0,ltipsjdv,4,18,3,5,1,1,1,1,40,40,10,
2024-05-14T12:14:01.196455,1715688841.1964655,proposal,5r4374w0,lq9jgj3i,4,10,1,3,1,1,1,1,35,35,30,
2024-05-14T12:14:01.681732,1715688841.6817415,proposal,5r4374w0,jkojnnx7,4,12,3,3,2,1,1,1,40,40,20,
2024-05-14T12:14:03.333393,1715688843.333405,proposal,5r4374w0,5a15tl23,4,32,2,12,1,1,1,1,45,45,10,
2024-05-14T12:14:04.042034,1715688844.0420463,proposal,5r4374w0,ka3iiv5c,4,35,3,11,1,1,1,1,40,40,18,
2024-05-14T12:14:05.015531,1715688845.015543,proposal,5r4374w0,sl0ekey1,4,8,2,4,2,1,1,0,50,50,0,
2024-05-14T12:14:05.196852,1715688845.1968656,proposal,5r4374w0,yv0td6xe,4,26,2,10,1,1,1,1,33,34,33,
2024-05-14T12:14:06.571193,1715688846.5712028,proposal,5r4374w0,3hy7y8i2,4,15,3,6,2,1,1,1,33,33,33,
2024-05-14T12:14:07.123026,1715688847.1230364,proposal,5r4374w0,ohwklw50,4,31,1,12,2,1,1,1,45,45,10,
2024-05-14T12:14:07.216170,1715688847.2161825,proposal,5r4374w0,hmipyra9,4,4,1,1,1,1,1,1,35,35,28,
2024-05-14T12:14:07.866605,1715688847.866615,proposal,5r4374w0,egh0i91b,4,28,1,9,1,1,1,0,50,50,0,
2024-05-14T12:14:08.400702,1715688848.400712,proposal,5r4374w0,ka3iiv5c,4,35,3,11,2,1,1,1,40,40,20,
2024-05-14T12:14:08.521093,1715688848.521104,proposal,5r4374w0,tjyqeoev,4,34,1,11,3,1,1,1,49,49,2,
2024-05-14T12:14:08.535327,1715688848.535341,proposal,5r4374w0,1a434dy2,4,6,2,1,2,1,1,1,35,35,30,
2024-05-14T12:14:09.034103,1715688849.0341156,proposal,5r4374w0,wdvxec6n,4,36,2,11,4,1,1,1,40,40,20,
2024-05-14T12:14:09.291826,1715688849.2918372,proposal,5r4374w0,1kh6c4dr,4,9,3,4,3,1,1,1,35,35,30,
2024-05-14T12:14:09.643765,1715688849.643779,proposal,5r4374w0,f15fo3yu,4,11,2,3,3,1,1,1,34,33,33,
2024-05-14T12:14:09.717813,1715688849.7178237,proposal,5r4374w0,wdb2bmuc,4,7,1,4,4,1,1,1,40,30,30,
2024-05-14T12:14:16.849401,1715688856.8494139,proposal,5r4374w0,kmp1r22f,4,13,1,6,3,1,1,1,47,47,6,
2024-05-14T12:14:17.162577,1715688857.1625867,proposal,5r4374w0,zlb86qtx,4,19,3,8,1,1,1,1,33,33,33,
2024-05-14T12:14:18.253630,1715688858.2536404,proposal,5r4374w0,sjcoa1gv,4,16,1,5,2,1,1,1,40,40,20,
2024-05-14T12:14:20.962240,1715688860.962251,proposal,5r4374w0,mz0ciadv,4,24,3,7,1,1,1,1,33,33,33,
2024-05-14T12:14:23.788121,1715688863.7881305,proposal,5r4374w0,g73l9vdl,4,27,1,10,2,1,1,0,60,40,0,
2024-05-14T12:14:30.087631,1715688870.0876431,proposal,5r4374w0,jpp7s5r6,4,29,2,9,2,1,1,1,49,49,2,
2024-05-14T12:14:34.004717,1715688874.004727,proposal,5r4374w0,yv0td6xe,4,26,2,10,3,1,1,0,50,50,0,
2024-05-14T12:14:40.467398,1715688880.467409,proposal,5r4374w0,8i7prunh,4,14,2,6,4,1,1,1,48,48,4,
2024-05-14T12:14:48.186606,1715688888.1866171,proposal,5r4374w0,egh0i91b,4,28,1,9,3,1,1,1,45,45,10,
2024-05-14T12:15:01.188755,1715688901.1887653,proposal,5r4374w0,sjcoa1gv,4,16,1,5,3,1,1,1,35,35,30,
2024-05-14T12:15:03.995297,1715688903.995308,proposal,5r4374w0,c1re0k0c,4,3,3,2,1,1,1,1,35,35,30,
2024-05-14T12:15:17.897961,1715688917.8979704,proposal,5r4374w0,bxtwzkk3,4,2,2,2,2,1,1,0,50,50,0,
2024-05-14T12:15:19.173168,1715688919.1731799,proposal,5r4374w0,yglobngj,4,25,3,10,4,1,1,1,45,46,9,
2024-05-14T12:15:31.692252,1715688931.6922646,proposal,5r4374w0,mz0ciadv,4,24,3,7,2,1,1,1,33,33,34,
2024-05-14T12:15:31.846286,1715688931.846294,proposal,5r4374w0,2qhev8bl,4,30,3,9,4,1,1,1,45,45,10,
2024-05-14T12:16:08.661040,1715688968.6610503,proposal,5r4374w0,3hy7y8i2,4,15,3,6,5,1,1,1,40,40,20,
2024-05-14T12:16:30.534125,1715688990.5341346,proposal,5r4374w0,sjcoa1gv,4,16,1,5,4,1,1,1,33,33,33,
2024-05-14T12:16:31.367673,1715688991.367687,proposal,5r4374w0,hlta2msa,4,21,1,8,2,1,1,1,34,33,33,
2024-05-14T12:16:44.993847,1715689004.9938557,proposal,5r4374w0,3hy7y8i2,4,15,3,6,6,1,1,1,45,45,10,
2024-05-14T12:17:05.152008,1715689025.1520178,proposal,5r4374w0,yglobngj,4,25,3,10,5,1,1,1,48,48,4,
2024-05-14T12:19:17.639191,1715689157.6391995,proposal,5r4374w0,2qhev8bl,5,30,2,9,1,1,1,0,50,50,0,
2024-05-14T12:19:18.951149,1715689158.9511619,proposal,5r4374w0,wdb2bmuc,5,7,3,4,1,1,1,1,40,40,20,
2024-05-14T12:19:19.487925,1715689159.4879353,proposal,5r4374w0,ka3iiv5c,5,35,2,12,1,1,1,0,50,50,0,
2024-05-14T12:19:19.744459,1715689159.7444696,proposal,5r4374w0,8i7prunh,5,14,1,5,1,1,1,0,50,50,0,
2024-05-14T12:19:20.918371,1715689160.9183784,proposal,5r4374w0,5a15tl23,5,32,1,11,1,1,1,1,45,45,10,
2024-05-14T12:19:22.514532,1715689162.5145433,proposal,5r4374w0,3hy7y8i2,5,15,3,5,2,1,1,1,33,33,33,
2024-05-14T12:19:22.843847,1715689162.8438582,proposal,5r4374w0,1a434dy2,5,6,2,1,1,1,1,1,35,35,30,
2024-05-14T12:19:24.621565,1715689164.6215746,proposal,5r4374w0,ohwklw50,5,31,3,12,2,1,1,1,40,40,20,
2024-05-14T12:19:24.636240,1715689164.6362495,proposal,5r4374w0,f15fo3yu,5,11,2,4,2,1,1,1,34,33,33,
2024-05-14T12:19:28.464639,1715689168.464652,proposal,5r4374w0,yglobngj,5,25,1,10,1,1,1,0,50,50,0,
2024-05-14T12:19:28.655228,1715689168.655239,proposal,5r4374w0,hljd8j8s,5,5,2,2,1,1,1,1,35,35,30,
2024-05-14T12:19:31.217972,1715689171.2179842,proposal,5r4374w0,tjyqeoev,5,34,1,12,3,1,1,1,48,48,4,
2024-05-14T12:19:34.330596,1715689174.3306055,proposal,5r4374w0,ohwklw50,5,31,3,12,4,1,1,1,45,45,10,
2024-05-14T12:19:34.805849,1715689174.8058598,proposal,5r4374w0,sl0ekey1,5,8,3,3,1,1,1,1,35,35,30,
2024-05-14T12:19:35.797721,1715689175.7977324,proposal,5r4374w0,dtjatgej,5,20,1,7,1,1,1,1,34,33,33,
2024-05-14T12:19:37.812341,1715689177.8123498,proposal,5r4374w0,wdvxec6n,5,36,2,11,2,1,1,1,45,45,10,
2024-05-14T12:19:39.064468,1715689179.0644796,proposal,5r4374w0,jpp7s5r6,5,29,2,10,2,1,1,1,40,40,10,
2024-05-14T12:19:39.342406,1715689179.3424184,proposal,5r4374w0,egh0i91b,5,28,3,10,3,1,1,1,40,40,20,
2024-05-14T12:19:47.142178,1715689187.1421866,proposal,5r4374w0,jpp7s5r6,5,29,2,10,4,1,1,1,40,40,20,
2024-05-14T12:19:53.627304,1715689193.6273143,proposal,5r4374w0,1kh6c4dr,5,9,1,3,2,1,1,1,35,35,30,
2024-05-14T12:20:01.695806,1715689201.6958182,proposal,5r4374w0,sjcoa1gv,5,16,2,6,1,1,1,1,33,33,33,
2024-05-14T12:20:06.551262,1715689206.5512724,proposal,5r4374w0,zlb86qtx,5,19,1,8,1,1,1,1,33,33,33,
2024-05-14T12:20:52.318165,1715689252.318176,proposal,5r4374w0,sjcoa1gv,5,16,2,6,2,1,1,1,33,34,33,
2024-05-14T12:20:56.522556,1715689256.5225663,proposal,5r4374w0,g73l9vdl,5,27,3,9,2,1,1,1,40,40,20,
2024-05-14T12:21:10.303202,1715689270.3032148,proposal,5r4374w0,3hy7y8i2,5,15,3,5,3,1,1,1,45,45,10,
2024-05-14T12:21:19.877051,1715689279.8770616,proposal,5r4374w0,48s50490,5,22,3,8,2,1,1,1,33,33,34,
2024-05-14T12:21:20.922321,1715689280.9223313,proposal,5r4374w0,5a15tl23,5,32,1,11,3,1,1,1,40,40,20,
2024-05-14T12:21:27.314871,1715689287.314882,proposal,5r4374w0,ds7gf3vg,5,23,2,8,3,1,1,1,34,33,33,
2024-05-14T12:21:39.871511,1715689299.8715227,proposal,5r4374w0,g73l9vdl,5,27,3,9,3,1,1,1,47,47,6,
2024-05-14T12:22:36.329986,1715689356.329996,proposal,5r4374w0,3hy7y8i2,5,15,3,5,4,1,1,1,47,47,6,
2024-05-14T12:23:19.701863,1715689399.701876,proposal,5r4374w0,3hy7y8i2,5,15,3,5,5,1,1,1,48,48,4,
2024-05-14T12:24:48.676736,1715689488.6767504,proposal,5r4374w0,lq9jgj3i,6,10,2,3,1,1,1,1,34,33,33,
2024-05-14T12:24:48.746404,1715689488.7464154,proposal,5r4374w0,1a434dy2,6,6,2,2,1,1,1,1,35,35,30,
2024-05-14T12:24:48.775312,1715689488.7753243,proposal,5r4374w0,2q16a6o8,6,17,2,6,1,1,1,1,40,40,20,
2024-05-14T12:24:48.979285,1715689488.979295,proposal,5r4374w0,yv0td6xe,6,26,1,9,1,1,1,0,50,50,0,
2024-05-14T12:24:49.874172,1715689489.8741822,proposal,5r4374w0,egh0i91b,6,28,2,9,2,1,1,0,50,50,0,
2024-05-14T12:24:50.264533,1715689490.2645469,proposal,5r4374w0,2qhev8bl,6,30,2,10,1,1,1,0,50,50,0,
2024-05-14T12:24:50.805812,1715689490.8058217,proposal,5r4374w0,8i7prunh,6,14,3,5,1,1,1,1,33,33,33,
2024-05-14T12:24:51.086570,1715689491.0865817,proposal,5r4374w0,wkfflns4,6,33,1,12,1,1,1,1,45,45,10,
2024-05-14T12:24:51.302642,1715689491.3026526,proposal,5r4374w0,bxtwzkk3,6,2,3,1,1,1,1,1,35,35,30,
2024-05-14T12:24:51.439154,1715689491.4391642,proposal,5r4374w0,hmipyra9,6,4,2,1,2,1,1,1,35,35,30,
2024-05-14T12:24:51.505061,1715689491.5050747,proposal,5r4374w0,sjcoa1gv,6,16,2,5,2,1,1,1,40,40,20,
2024-05-14T12:24:51.875029,1715689491.8750415,proposal,5r4374w0,5a15tl23,6,32,1,11,1,1,1,1,45,45,10,
2024-05-14T12:24:51.912772,1715689491.912786,proposal,5r4374w0,3hy7y8i2,6,15,1,6,2,1,1,1,33,33,33,
2024-05-14T12:24:52.548107,1715689492.548114,proposal,5r4374w0,jkojnnx7,6,12,3,4,1,1,1,1,35,35,30,
2024-05-14T12:24:53.096920,1715689493.096932,proposal,5r4374w0,ka3iiv5c,6,35,3,12,2,1,1,1,40,40,20,
2024-05-14T12:24:54.119564,1715689494.1195748,proposal,5r4374w0,1kh6c4dr,6,9,1,4,2,1,1,1,35,35,30,
2024-05-14T12:25:00.207347,1715689500.20736,proposal,5r4374w0,jpp7s5r6,6,29,1,10,2,1,1,1,45,45,10,
2024-05-14T12:25:01.823830,1715689501.8238394,proposal,5r4374w0,wdvxec6n,6,36,2,12,3,1,1,1,45,45,10,
2024-05-14T12:25:31.781786,1715689531.7817955,proposal,5r4374w0,dtjatgej,6,20,2,7,1,1,1,1,33,33,34,
2024-05-14T12:25:53.204504,1715689553.204517,proposal,5r4374w0,yglobngj,6,25,3,9,3,1,1,1,45,45,10,
2024-05-14T12:26:28.731456,1715689588.7314665,proposal,5r4374w0,sjcoa1gv,6,16,2,5,3,1,1,1,33,34,33,
2024-05-14T12:26:57.055254,1715689617.0552666,proposal,5r4374w0,tjyqeoev,6,34,2,11,2,1,1,0,50,50,0,
2024-05-14T12:27:23.033910,1715689643.0339236,proposal,5r4374w0,hlta2msa,6,21,3,8,1,1,1,1,33,33,34,
2024-05-16T09:00:43.225306,1715850043.2253234,proposal,v0bpsxm2,g4jckmms,1,22,2,8,1,1,1,1,34,33,33,
2024-05-16T09:00:49.542759,1715850049.5427718,proposal,v0bpsxm2,uocdifm0,1,8,3,4,1,1,1,1,34,33,33,
2024-05-16T09:00:56.114222,1715850056.114237,proposal,v0bpsxm2,e104xl4i,1,30,2,10,1,1,1,1,33,34,33,
2024-05-16T09:00:58.403591,1715850058.4036071,proposal,v0bpsxm2,pe10l88m,1,14,3,6,1,1,1,1,33,33,33,
2024-05-16T09:00:59.630170,1715850059.630181,proposal,v0bpsxm2,58qtb8v6,1,2,3,2,1,1,1,1,30,30,30,
2024-05-16T09:01:02.834449,1715850062.8344636,proposal,v0bpsxm2,0urjtojp,1,20,3,8,2,1,1,1,34,33,33,
2024-05-16T09:01:03.565630,1715850063.5656407,proposal,v0bpsxm2,197er6a2,1,13,3,5,1,1,1,1,34,33,33,
2024-05-16T09:01:07.677340,1715850067.677359,proposal,v0bpsxm2,ij2rrhyx,1,7,3,3,1,1,1,1,33,33,33,
2024-05-16T09:01:09.185051,1715850069.1850624,proposal,v0bpsxm2,j9s0vm81,1,28,1,10,2,1,1,1,34,33,33,
2024-05-16T09:01:10.636968,1715850070.6369824,proposal,v0bpsxm2,b5octfmz,1,21,2,7,1,1,1,1,50,25,25,
2024-05-16T09:01:15.246403,1715850075.2464151,proposal,v0bpsxm2,vmtvitch,1,31,1,11,1,1,1,1,33,34,33,
2024-05-16T09:01:15.645198,1715850075.6452093,proposal,v0bpsxm2,h8nknrk3,1,12,1,4,2,1,1,1,60,20,20,
2024-05-16T09:01:15.871820,1715850075.871831,proposal,v0bpsxm2,u3tex7e3,1,6,1,2,2,1,1,1,33,33,33,
2024-05-16T09:01:16.981967,1715850076.981981,proposal,v0bpsxm2,3bod94tp,1,19,3,7,2,1,1,1,40,30,30,
2024-05-16T09:01:17.305163,1715850077.3051777,proposal,v0bpsxm2,m3jyk7ro,1,29,2,9,1,1,1,0,45,45,0,
2024-05-16T09:01:20.396731,1715850080.3967457,proposal,v0bpsxm2,8zecqcvq,1,10,2,4,3,1,1,1,34,33,33,
2024-05-16T09:01:26.567974,1715850086.5679853,proposal,v0bpsxm2,1tsbadmg,1,15,1,5,2,1,0,1,70,0,20,
2024-05-16T09:01:28.568078,1715850088.5681157,proposal,v0bpsxm2,e104xl4i,1,30,2,10,3,1,1,1,30,30,30,
2024-05-16T09:01:29.731399,1715850089.7314124,proposal,v0bpsxm2,kfgiympu,1,24,1,8,3,1,1,1,40,20,30,
2024-05-16T09:01:31.115241,1715850091.1152518,proposal,v0bpsxm2,cji72u0e,1,25,3,9,2,1,0,1,50,0,40,
2024-05-16T09:01:32.453745,1715850092.4537623,proposal,v0bpsxm2,58qtb8v6,1,2,3,2,3,1,1,1,40,30,10,
2024-05-16T09:01:35.340822,1715850095.3408363,proposal,v0bpsxm2,3bod94tp,1,19,3,7,3,1,1,1,25,25,25,
2024-05-16T09:01:39.907885,1715850099.907899,proposal,v0bpsxm2,ovi5mgfs,1,4,2,2,4,1,1,1,33,33,33,
2024-05-16T09:01:44.533206,1715850104.5332167,proposal,v0bpsxm2,m3jyk7ro,1,29,2,9,3,1,1,1,20,40,40,
2024-05-16T09:01:49.165711,1715850109.165725,proposal,v0bpsxm2,3bod94tp,1,19,3,7,4,1,1,1,30,30,30,
2024-05-16T09:01:55.566152,1715850115.5661714,proposal,v0bpsxm2,3bod94tp,1,19,3,7,5,1,1,1,35,30,30,
2024-05-16T09:02:00.056339,1715850120.0563598,proposal,v0bpsxm2,pgzf722x,1,27,1,9,4,1,1,1,80,10,10,
2024-05-16T09:02:04.293297,1715850124.2933068,proposal,v0bpsxm2,txnxowyb,1,5,1,1,1,1,1,1,34,33,33,
2024-05-16T09:02:04.530870,1715850124.530883,proposal,v0bpsxm2,vgs79s7u,1,1,3,1,2,1,1,1,34,33,33,
2024-05-16T09:02:07.870090,1715850127.8701026,proposal,v0bpsxm2,1tsbadmg,1,15,1,5,3,1,1,1,80,10,10,
2024-05-16T09:02:08.599094,1715850128.5991087,proposal,v0bpsxm2,h8mn1ldu,1,34,3,12,1,1,1,1,40,30,30,
2024-05-16T09:02:08.785244,1715850128.7852602,proposal,v0bpsxm2,ffegqwes,1,32,1,12,2,1,1,1,40,30,30,
2024-05-16T09:02:09.249992,1715850129.2500055,proposal,v0bpsxm2,kfgiympu,1,24,1,8,4,1,1,1,50,25,25,
2024-05-16T09:02:09.999823,1715850129.9998395,proposal,v0bpsxm2,ggrdd5iq,1,23,1,7,6,1,1,1,35,32,32,
2024-05-16T09:02:12.747862,1715850132.7478752,proposal,v0bpsxm2,pgzf722x,1,27,1,9,5,1,1,0,80,10,0,
2024-05-16T09:02:17.254078,1715850137.2540922,proposal,v0bpsxm2,58qtb8v6,1,2,3,2,5,1,1,1,42,38,20,
2024-05-16T09:02:17.787062,1715850137.7870746,proposal,v0bpsxm2,pgzf722x,1,27,1,9,6,1,0,1,80,0,10,
2024-05-16T09:02:27.165492,1715850147.1655023,proposal,v0bpsxm2,0urjtojp,1,20,3,8,5,1,1,1,40,30,30,
2024-05-16T09:02:29.386785,1715850149.3867962,proposal,v0bpsxm2,197er6a2,1,13,3,5,4,1,1,1,40,30,30,
2024-05-16T09:02:37.109093,1715850157.109106,proposal,v0bpsxm2,ffegqwes,1,32,1,12,3,1,1,1,40,30,30,
2024-05-16T09:02:47.698966,1715850167.6989758,proposal,v0bpsxm2,m3jyk7ro,1,29,2,9,7,1,1,1,35,30,35,
2024-05-16T09:02:50.008639,1715850170.0086496,proposal,v0bpsxm2,pgzf722x,1,27,1,9,8,1,1,1,60,20,20,
2024-05-16T09:03:02.822128,1715850182.8221405,proposal,v0bpsxm2,kfgiympu,1,24,1,8,6,1,1,0,80,10,0,
2024-05-16T09:03:04.793025,1715850184.7930343,proposal,v0bpsxm2,58qtb8v6,1,2,3,2,6,1,1,1,30,30,30,
2024-05-16T09:03:08.082623,1715850188.0826342,proposal,v0bpsxm2,u3tex7e3,1,6,1,2,7,1,1,1,43,24,33,
2024-05-16T09:03:18.797156,1715850198.7971675,proposal,v0bpsxm2,cji72u0e,1,25,3,9,9,1,0,1,65,0,25,
2024-05-16T09:03:33.248543,1715850213.2485576,proposal,v0bpsxm2,ggrdd5iq,1,23,1,7,7,1,1,1,36,32,32,
2024-05-16T09:03:37.949504,1715850217.949516,proposal,v0bpsxm2,pgzf722x,1,27,1,9,10,1,0,1,70,0,20,
2024-05-16T09:03:38.085822,1715850218.0858338,proposal,v0bpsxm2,ovi5mgfs,1,4,2,2,8,1,1,1,33,33,33,
2024-05-16T09:03:38.374737,1715850218.3747482,proposal,v0bpsxm2,1tsbadmg,1,15,1,5,5,1,1,1,60,20,20,
2024-05-16T09:03:39.349192,1715850219.349205,proposal,v0bpsxm2,p7ldsgd8,1,18,1,6,2,1,1,1,34,33,33,
2024-05-16T09:03:45.537509,1715850225.5375252,proposal,v0bpsxm2,e104xl4i,1,30,2,10,4,1,1,1,32,32,32,
2024-05-16T09:04:00.606730,1715850240.6067443,proposal,v0bpsxm2,58qtb8v6,1,2,3,2,9,1,1,1,36,38,26,
2024-05-16T09:04:11.739580,1715850251.7395906,proposal,v0bpsxm2,ovi5mgfs,1,4,2,2,10,1,1,1,33,33,33,
2024-05-16T09:04:26.667955,1715850266.6679676,proposal,v0bpsxm2,0l3xkh9f,1,26,3,10,5,1,1,1,45,45,5,
2024-05-16T09:04:37.134606,1715850277.1346226,proposal,v0bpsxm2,58qtb8v6,1,2,3,2,11,1,1,1,35,33,30,
2024-05-16T09:04:43.749083,1715850283.7490923,proposal,v0bpsxm2,58qtb8v6,1,2,3,2,12,1,1,1,35,33,32,
2024-05-16T09:04:49.905810,1715850289.905826,proposal,v0bpsxm2,b5octfmz,1,21,2,7,8,1,1,1,34,33,33,
2024-05-16T09:04:51.071658,1715850291.0716698,proposal,v0bpsxm2,0l3xkh9f,1,26,3,10,6,1,1,1,5,45,45,
2024-05-16T09:04:51.583957,1715850291.5839698,proposal,v0bpsxm2,3bod94tp,1,19,3,7,9,1,1,1,33,33,33,
2024-05-16T09:06:21.795034,1715850381.7950482,proposal,v0bpsxm2,j9s0vm81,2,28,1,10,1,1,1,1,32,32,32,
2024-05-16T09:06:22.085070,1715850382.0850863,proposal,v0bpsxm2,g4jckmms,2,22,1,8,1,1,1,1,40,30,30,
2024-05-16T09:06:22.419706,1715850382.419717,proposal,v0bpsxm2,b5octfmz,2,21,2,8,2,1,1,1,33,33,33,
2024-05-16T09:06:22.818699,1715850382.8187096,proposal,v0bpsxm2,e104xl4i,2,30,1,9,1,1,1,1,32,32,32,
2024-05-16T09:06:23.451092,1715850383.4511037,proposal,v0bpsxm2,xpnyaewq,2,9,1,4,1,1,1,1,33,33,33,
2024-05-16T09:06:24.573033,1715850384.5730455,proposal,v0bpsxm2,58qtb8v6,2,2,1,2,1,1,1,1,33,33,33,
2024-05-16T09:06:25.732214,1715850385.7322242,proposal,v0bpsxm2,ovi5mgfs,2,4,2,2,2,1,1,1,33,33,33,
2024-05-16T09:06:26.881298,1715850386.8813152,proposal,v0bpsxm2,0urjtojp,2,20,3,8,3,1,1,1,40,30,30,
2024-05-16T09:06:26.970108,1715850386.9701176,proposal,v0bpsxm2,kfgiympu,2,24,2,7,1,1,1,1,34,33,33,
2024-05-16T09:06:27.177839,1715850387.177855,proposal,v0bpsxm2,3bod94tp,2,19,1,7,2,1,1,1,34,33,33,
2024-05-16T09:06:28.188209,1715850388.1882176,proposal,v0bpsxm2,nvbhjz3i,2,11,3,3,1,1,1,1,34,33,33,
2024-05-16T09:06:28.725414,1715850388.7254252,proposal,v0bpsxm2,lhcqgubk,2,17,1,5,1,1,1,1,34,33,33,
2024-05-16T09:06:32.485111,1715850392.485123,proposal,v0bpsxm2,8zecqcvq,2,10,2,4,2,1,1,1,34,33,33,
2024-05-16T09:06:37.967845,1715850397.9678617,proposal,v0bpsxm2,m3jyk7ro,2,29,2,9,2,1,1,1,30,30,30,
2024-05-16T09:06:43.789838,1715850403.7898471,proposal,v0bpsxm2,u3tex7e3,2,6,2,1,1,1,1,1,33,33,33,
2024-05-16T09:06:45.226570,1715850405.2265792,proposal,v0bpsxm2,1tsbadmg,2,15,3,6,1,1,1,1,34,33,33,
2024-05-16T09:06:46.697426,1715850406.6974363,proposal,v0bpsxm2,ffegqwes,2,32,3,12,1,1,1,1,40,30,30,
2024-05-16T09:06:48.495964,1715850408.4959738,proposal,v0bpsxm2,e104xl4i,2,30,1,9,3,1,1,1,40,40,20,
2024-05-16T09:06:51.409535,1715850411.4095457,proposal,v0bpsxm2,cji72u0e,2,25,3,9,4,1,0,1,50,0,40,
2024-05-16T09:07:02.569104,1715850422.5691154,proposal,v0bpsxm2,uocdifm0,2,8,3,4,3,1,0,1,50,0,40,
2024-05-16T09:07:16.531127,1715850436.5311456,proposal,v0bpsxm2,pe10l88m,2,14,1,6,2,1,0,1,45,0,45,
2024-05-16T09:07:32.024342,1715850452.0243516,proposal,v0bpsxm2,gbwqq0rs,2,36,2,11,1,1,1,1,40,30,30,
2024-05-16T09:07:34.391456,1715850454.3914673,proposal,v0bpsxm2,37sp9sjc,2,33,2,12,2,1,1,1,34,33,33,
2024-05-16T09:07:36.785880,1715850456.7858908,proposal,v0bpsxm2,vgs79s7u,2,1,1,1,2,1,1,1,50,25,25,
2024-05-16T09:07:58.168503,1715850478.168516,proposal,v0bpsxm2,rq6ucqv6,2,35,3,11,2,1,1,1,33,33,33,
2024-05-16T09:08:08.336210,1715850488.3362203,proposal,v0bpsxm2,vgs79s7u,2,1,1,1,3,1,1,0,55,35,0,
2024-05-16T09:08:15.025212,1715850495.0252235,proposal,v0bpsxm2,vgs79s7u,2,1,1,1,4,1,0,1,55,0,35,
2024-05-16T09:08:26.243088,1715850506.2430975,proposal,v0bpsxm2,0urjtojp,2,20,3,8,4,1,1,1,40,30,30,
2024-05-16T09:08:46.414750,1715850526.414759,proposal,v0bpsxm2,3bod94tp,2,19,1,7,3,1,1,0,45,45,0,
2024-05-16T09:09:13.524159,1715850553.524173,proposal,v0bpsxm2,l078v2ul,2,16,2,6,3,1,1,0,46,44,0,
2024-05-16T09:09:28.937943,1715850568.9379537,proposal,v0bpsxm2,m3jyk7ro,2,29,2,9,5,1,1,0,60,30,0,
2024-05-16T09:09:45.249364,1715850585.2493982,proposal,v0bpsxm2,cji72u0e,2,25,3,9,6,1,0,1,65,0,25,
2024-05-16T09:10:08.007974,1715850608.007986,proposal,v0bpsxm2,m3jyk7ro,2,29,2,9,7,1,1,0,67,23,0,
2024-05-16T09:10:50.776124,1715850650.7761345,proposal,v0bpsxm2,cji72u0e,2,25,3,9,8,1,0,1,70,0,20,
2024-05-16T09:10:59.589635,1715850659.5896456,proposal,v0bpsxm2,m3jyk7ro,2,29,2,9,9,1,1,0,73,13,0,
2024-05-16T09:11:02.197699,1715850662.19771,proposal,v0bpsxm2,vmtvitch,2,31,1,11,3,1,0,1,50,0,40,
2024-05-16T09:11:03.510946,1715850663.510961,proposal,v0bpsxm2,1tsbadmg,2,15,3,6,4,1,0,1,50,0,40,
2024-05-16T09:12:04.271369,1715850724.271382,proposal,v0bpsxm2,58qtb8v6,3,2,1,2,1,1,1,1,33,33,33,
2024-05-16T09:12:05.566618,1715850725.5666285,proposal,v0bpsxm2,uocdifm0,3,8,2,4,1,1,1,1,34,33,33,
2024-05-16T09:12:06.209147,1715850726.2091641,proposal,v0bpsxm2,g4jckmms,3,22,1,7,1,1,1,1,40,30,30,
2024-05-16T09:12:09.057747,1715850729.057761,proposal,v0bpsxm2,1tsbadmg,3,15,2,5,1,1,1,1,34,33,33,
2024-05-16T09:12:09.560284,1715850729.5602968,proposal,v0bpsxm2,0urjtojp,3,20,1,8,1,1,1,1,40,30,30,
2024-05-16T09:12:09.887922,1715850729.887936,proposal,v0bpsxm2,p7ldsgd8,3,18,3,6,1,1,1,1,34,33,33,
2024-05-16T09:12:09.908986,1715850729.9089985,proposal,v0bpsxm2,197er6a2,3,13,1,6,2,1,1,1,34,33,33,
2024-05-16T09:12:12.877377,1715850732.877389,proposal,v0bpsxm2,e104xl4i,3,30,1,10,1,1,1,1,32,32,32,
2024-05-16T09:12:13.063855,1715850733.063867,proposal,v0bpsxm2,3bod94tp,3,19,2,8,2,1,1,1,33,33,33,
2024-05-16T09:12:17.186078,1715850737.1860893,proposal,v0bpsxm2,ggrdd5iq,3,23,2,7,2,1,1,1,33,33,33,
2024-05-16T09:12:17.467791,1715850737.467802,proposal,v0bpsxm2,m3jyk7ro,3,29,2,9,1,1,1,1,35,30,35,
2024-05-16T09:12:22.124663,1715850742.1246743,proposal,v0bpsxm2,uocdifm0,3,8,2,4,2,1,1,0,50,40,0,
2024-05-16T09:12:23.764149,1715850743.76416,proposal,v0bpsxm2,kfgiympu,3,24,3,8,3,1,1,1,34,33,33,
2024-05-16T09:12:24.426686,1715850744.426695,proposal,v0bpsxm2,vmtvitch,3,31,1,12,1,1,1,1,60,20,20,
2024-05-16T09:12:24.662643,1715850744.6626792,proposal,v0bpsxm2,b3u444ci,3,3,3,1,1,1,1,1,33,33,33,
2024-05-16T09:12:29.286833,1715850749.2868454,proposal,v0bpsxm2,lhcqgubk,3,17,1,5,2,1,1,0,45,45,0,
2024-05-16T09:12:31.245593,1715850751.2456045,proposal,v0bpsxm2,pgzf722x,3,27,1,9,2,1,1,1,35,33,32,
2024-05-16T09:12:34.093389,1715850754.0934086,proposal,v0bpsxm2,e104xl4i,3,30,1,10,2,1,0,1,50,0,40,
2024-05-16T09:12:39.037423,1715850759.0374334,proposal,v0bpsxm2,ovi5mgfs,3,4,1,1,2,1,1,1,33,33,33,
2024-05-16T09:12:40.953098,1715850760.953109,proposal,v0bpsxm2,nvbhjz3i,3,11,2,3,1,1,1,1,34,33,33,
2024-05-16T09:12:41.308489,1715850761.3085003,proposal,v0bpsxm2,e104xl4i,3,30,1,10,3,1,1,0,50,40,0,
2024-05-16T09:12:41.659950,1715850761.6599615,proposal,v0bpsxm2,h8mn1ldu,3,34,3,11,1,1,1,1,34,33,33,
2024-05-16T09:12:43.125418,1715850763.125429,proposal,v0bpsxm2,ffegqwes,3,32,2,12,2,1,1,1,34,33,33,
2024-05-16T09:12:44.111576,1715850764.1115904,proposal,v0bpsxm2,8zecqcvq,3,10,3,3,2,1,1,1,33,33,33,
2024-05-16T09:12:48.191420,1715850768.1914306,proposal,v0bpsxm2,j9s0vm81,3,28,3,9,3,1,1,1,32,33,33,
2024-05-16T09:12:49.195539,1715850769.195549,proposal,v0bpsxm2,3bod94tp,3,19,2,8,4,1,1,0,46,44,0,
2024-05-16T09:12:55.280634,1715850775.2806442,proposal,v0bpsxm2,j9s0vm81,3,28,3,9,4,1,1,1,33,33,33,
2024-05-16T09:13:09.986285,1715850789.986297,proposal,v0bpsxm2,b5octfmz,3,21,3,7,3,1,1,1,36,32,32,
2024-05-16T09:13:10.031419,1715850790.0314302,proposal,v0bpsxm2,pgzf722x,3,27,1,9,5,1,1,1,34,33,33,
2024-05-16T09:13:16.282435,1715850796.2824464,proposal,v0bpsxm2,txnxowyb,3,5,2,1,3,1,1,1,34,33,33,
2024-05-16T09:13:40.358284,1715850820.3582954,proposal,v0bpsxm2,l078v2ul,3,16,3,5,3,1,0,1,50,0,40,
2024-05-16T09:13:57.937124,1715850837.9371364,proposal,v0bpsxm2,e104xl4i,3,30,1,10,4,1,1,1,50,25,25,
2024-05-16T09:14:13.347421,1715850853.3474317,proposal,v0bpsxm2,uocdifm0,3,8,2,4,3,1,1,1,50,40,10,
2024-05-16T09:14:14.860893,1715850854.8609047,proposal,v0bpsxm2,l078v2ul,3,16,3,5,4,1,1,1,50,25,25,
2024-05-16T09:14:19.511699,1715850859.5117164,proposal,v0bpsxm2,vgs79s7u,3,1,2,2,2,1,1,1,34,33,33,
2024-05-16T09:14:33.761157,1715850873.7611668,proposal,v0bpsxm2,ij2rrhyx,3,7,3,4,4,1,1,1,40,30,30,
2024-05-16T09:15:01.191843,1715850901.1918533,proposal,v0bpsxm2,lhcqgubk,3,17,1,5,5,1,1,1,40,30,30,
2024-05-16T09:15:11.148968,1715850911.1489794,proposal,v0bpsxm2,vmtvitch,3,31,1,12,3,1,1,0,55,35,0,
2024-05-16T09:15:13.789953,1715850913.7899663,proposal,v0bpsxm2,ffegqwes,3,32,2,12,4,1,1,1,40,30,30,
2024-05-16T09:15:46.795515,1715850946.7955287,proposal,v0bpsxm2,e104xl4i,3,30,1,10,5,1,1,1,40,30,30,
2024-05-16T09:15:57.816084,1715850957.8160958,proposal,v0bpsxm2,1tsbadmg,3,15,2,5,6,1,1,0,55,35,0,
2024-05-16T09:16:47.966307,1715851007.9663212,proposal,v0bpsxm2,pe10l88m,3,14,2,6,3,1,1,0,50,40,0,
2024-05-16T09:17:32.909537,1715851052.9095497,proposal,v0bpsxm2,58qtb8v6,4,2,1,2,1,1,1,1,33,33,33,
2024-05-16T09:17:34.847624,1715851054.8476334,proposal,v0bpsxm2,uocdifm0,4,8,3,4,1,1,1,1,34,33,33,
2024-05-16T09:17:37.259785,1715851057.2597928,proposal,v0bpsxm2,g4jckmms,4,22,2,7,1,1,1,1,34,33,33,
2024-05-16T09:17:39.358759,1715851059.358776,proposal,v0bpsxm2,p7ldsgd8,4,18,3,5,1,1,1,1,34,33,33,
2024-05-16T09:17:40.118052,1715851060.1180675,proposal,v0bpsxm2,8zecqcvq,4,10,2,3,1,1,1,1,33,33,33,
2024-05-16T09:17:40.144987,1715851060.1450005,proposal,v0bpsxm2,pgzf722x,4,27,2,10,1,1,1,1,34,33,33,
2024-05-16T09:17:40.559283,1715851060.5592942,proposal,v0bpsxm2,h8nknrk3,4,12,3,3,2,1,0,1,50,0,40,
2024-05-16T09:17:41.885616,1715851061.8856318,proposal,v0bpsxm2,b5octfmz,4,21,2,8,1,1,1,1,36,32,32,
2024-05-16T09:17:42.273375,1715851062.273389,proposal,v0bpsxm2,pe10l88m,4,14,3,6,1,1,1,1,34,33,33,
2024-05-16T09:17:44.069070,1715851064.0690799,proposal,v0bpsxm2,j9s0vm81,4,28,2,9,1,1,1,1,33,33,33,
2024-05-16T09:17:45.180066,1715851065.180081,proposal,v0bpsxm2,cji72u0e,4,25,1,10,2,1,1,0,50,40,0,
2024-05-16T09:17:45.882267,1715851065.8822787,proposal,v0bpsxm2,gbwqq0rs,4,36,1,11,1,1,1,1,40,30,30,
2024-05-16T09:17:51.822029,1715851071.82204,proposal,v0bpsxm2,uocdifm0,4,8,3,4,2,1,1,1,50,40,10,
2024-05-16T09:17:51.898423,1715851071.8984416,proposal,v0bpsxm2,cji72u0e,4,25,1,10,3,1,0,1,50,0,40,
2024-05-16T09:17:52.519271,1715851072.519283,proposal,v0bpsxm2,e104xl4i,4,30,3,9,2,1,0,1,45,0,45,
2024-05-16T09:17:55.097767,1715851075.0977821,proposal,v0bpsxm2,h8nknrk3,4,12,3,3,3,1,0,1,50,0,40,
2024-05-16T09:17:56.025141,1715851076.0251517,proposal,v0bpsxm2,1tsbadmg,4,15,1,6,2,1,0,1,45,0,45,
2024-05-16T09:17:58.301931,1715851078.3019419,proposal,v0bpsxm2,ffegqwes,4,32,1,12,1,1,1,1,38,31,31,
2024-05-16T09:17:59.121813,1715851079.1218278,proposal,v0bpsxm2,3bod94tp,4,19,3,8,2,1,1,1,33,34,33,
2024-05-16T09:18:01.402812,1715851081.402835,proposal,v0bpsxm2,0urjtojp,4,20,1,8,3,1,1,1,40,30,30,
2024-05-16T09:18:14.084686,1715851094.0846975,proposal,v0bpsxm2,j9s0vm81,4,28,2,9,3,1,1,0,45,45,0,
2024-05-16T09:18:15.854422,1715851095.8544333,proposal,v0bpsxm2,3bod94tp,4,19,3,8,4,1,1,1,33,33,34,
2024-05-16T09:18:19.581147,1715851099.5811605,proposal,v0bpsxm2,m3jyk7ro,4,29,1,9,4,1,1,0,60,20,0,
2024-05-16T09:18:25.479375,1715851105.479389,proposal,v0bpsxm2,kfgiympu,4,24,1,7,2,1,1,0,75,5,0,
2024-05-16T09:18:27.146422,1715851107.1464334,proposal,v0bpsxm2,m3jyk7ro,4,29,1,9,5,1,0,1,60,0,20,
2024-05-16T09:18:27.459277,1715851107.4592898,proposal,v0bpsxm2,vmtvitch,4,31,3,12,2,1,1,1,34,33,33,
2024-05-16T09:18:37.983684,1715851117.9836981,proposal,v0bpsxm2,h8mn1ldu,4,34,2,11,2,1,1,1,34,33,33,
2024-05-16T09:18:41.863012,1715851121.8630235,proposal,v0bpsxm2,197er6a2,4,13,2,6,3,1,1,1,60,20,20,
2024-05-16T09:18:43.883150,1715851123.883161,proposal,v0bpsxm2,0urjtojp,4,20,1,8,5,1,1,0,50,40,0,
2024-05-16T09:18:47.590082,1715851127.590094,proposal,v0bpsxm2,u3tex7e3,4,6,1,1,1,1,1,1,42,29,29,
2024-05-16T09:18:48.476132,1715851128.4761648,proposal,v0bpsxm2,m3jyk7ro,4,29,1,9,6,1,1,1,50,25,25,
2024-05-16T09:19:03.054467,1715851143.0544794,proposal,v0bpsxm2,0l3xkh9f,4,26,3,10,4,1,1,1,33,33,33,
2024-05-16T09:19:15.052408,1715851155.0524187,proposal,v0bpsxm2,vgs79s7u,4,1,3,2,2,1,1,1,34,33,33,
2024-05-16T09:19:23.960508,1715851163.9605188,proposal,v0bpsxm2,ggrdd5iq,4,23,3,7,3,1,0,1,50,0,40,
2024-05-16T09:19:27.696408,1715851167.6964188,proposal,v0bpsxm2,j9s0vm81,4,28,2,9,7,1,1,1,36,32,32,
2024-05-16T09:19:30.575832,1715851170.5758443,proposal,v0bpsxm2,m3jyk7ro,4,29,1,9,8,1,1,1,40,30,30,
2024-05-16T09:19:32.921270,1715851172.921283,proposal,v0bpsxm2,3bod94tp,4,19,3,8,6,1,1,1,33,33,33,
2024-05-16T09:20:00.751256,1715851200.751271,proposal,v0bpsxm2,1tsbadmg,4,15,1,6,4,1,1,1,70,15,15,
2024-05-16T09:20:19.155219,1715851219.155229,proposal,v0bpsxm2,cji72u0e,4,25,1,10,5,1,1,1,40,30,30,
2024-05-16T09:21:28.132932,1715851288.132943,proposal,v0bpsxm2,g4jckmms,4,22,2,7,4,1,1,1,40,30,30,
2024-05-16T09:21:54.416075,1715851314.4160864,proposal,v0bpsxm2,197er6a2,4,13,2,6,5,1,1,0,70,20,0,
2024-05-16T09:22:00.145839,1715851320.1458492,proposal,v0bpsxm2,pgzf722x,4,27,2,10,6,1,1,0,55,35,0,
2024-05-16T09:22:15.586663,1715851335.5866754,proposal,v0bpsxm2,kfgiympu,4,24,1,7,5,1,1,0,60,30,0,
2024-05-16T09:22:16.481691,1715851336.4817038,proposal,v0bpsxm2,pe10l88m,4,14,3,6,6,1,0,1,71,0,19,
2024-05-16T09:23:01.394363,1715851381.394375,proposal,v0bpsxm2,58qtb8v6,5,2,1,1,1,1,1,1,33,33,33,
2024-05-16T09:23:03.134006,1715851383.1340191,proposal,v0bpsxm2,uocdifm0,5,8,1,3,1,1,1,1,34,33,33,
2024-05-16T09:23:03.918337,1715851383.9183507,proposal,v0bpsxm2,p7ldsgd8,5,18,3,5,1,1,1,1,34,33,33,
2024-05-16T09:23:04.479381,1715851384.479394,proposal,v0bpsxm2,pe10l88m,5,14,2,5,2,1,1,1,34,33,33,
2024-05-16T09:23:05.491645,1715851385.4916627,proposal,v0bpsxm2,197er6a2,5,13,2,6,1,1,1,1,34,33,33,
2024-05-16T09:23:06.758542,1715851386.758553,proposal,v0bpsxm2,pgzf722x,5,27,3,9,1,1,1,1,34,33,33,
2024-05-16T09:23:07.637087,1715851387.637099,proposal,v0bpsxm2,nvbhjz3i,5,11,3,4,1,1,0,1,50,0,40,
2024-05-16T09:23:11.738963,1715851391.7389734,proposal,v0bpsxm2,b5octfmz,5,21,3,7,1,1,1,1,36,32,32,
2024-05-16T09:23:12.031624,1715851392.0316362,proposal,v0bpsxm2,h8nknrk3,5,12,3,3,2,1,0,1,50,0,40,
2024-05-16T09:23:13.698029,1715851393.6980395,proposal,v0bpsxm2,ffegqwes,5,32,2,11,1,1,1,1,34,33,33,
2024-05-16T09:23:13.914548,1715851393.9145606,proposal,v0bpsxm2,m3jyk7ro,5,29,3,10,1,1,1,1,34,33,33,
2024-05-16T09:23:15.192180,1715851395.192201,proposal,v0bpsxm2,0urjtojp,5,20,2,7,2,1,1,1,40,30,30,
2024-05-16T09:23:18.679842,1715851398.679856,proposal,v0bpsxm2,e104xl4i,5,30,1,9,2,1,1,1,33,33,33,
2024-05-16T09:23:19.821835,1715851399.8218467,proposal,v0bpsxm2,u3tex7e3,5,6,3,1,2,1,1,1,34,33,33,
2024-05-16T09:23:22.645404,1715851402.6454148,proposal,v0bpsxm2,g4jckmms,5,22,2,8,1,1,1,1,40,30,30,
2024-05-16T09:23:27.855205,1715851407.8552256,proposal,v0bpsxm2,kfgiympu,5,24,1,7,3,1,1,0,60,30,0,
2024-05-16T09:23:28.789733,1715851408.789751,proposal,v0bpsxm2,1tsbadmg,5,15,1,5,3,1,1,0,45,45,0,
2024-05-16T09:23:29.940906,1715851409.9409177,proposal,v0bpsxm2,vmtvitch,5,31,2,12,1,1,1,1,34,33,33,
2024-05-16T09:23:31.809827,1715851411.8098378,proposal,v0bpsxm2,j9s0vm81,5,28,1,10,2,1,1,1,40,30,30,
2024-05-16T09:23:33.291820,1715851413.29183,proposal,v0bpsxm2,txnxowyb,5,5,1,2,1,1,1,1,42,29,29,
2024-05-16T09:23:35.508544,1715851415.5085537,proposal,v0bpsxm2,e104xl4i,5,30,1,9,3,1,1,1,36,32,32,
2024-05-16T09:23:36.659290,1715851416.6593046,proposal,v0bpsxm2,uocdifm0,5,8,1,3,3,1,1,1,50,15,35,
2024-05-16T09:23:38.429779,1715851418.4297905,proposal,v0bpsxm2,kfgiympu,5,24,1,7,4,1,0,1,60,0,30,
2024-05-16T09:23:39.577664,1715851419.5776753,proposal,v0bpsxm2,ij2rrhyx,5,7,2,4,2,1,1,1,34,33,33,
2024-05-16T09:23:45.337028,1715851425.3370385,proposal,v0bpsxm2,ggrdd5iq,5,23,3,8,2,1,1,1,34,33,33,
2024-05-16T09:23:54.713549,1715851434.7135615,proposal,v0bpsxm2,ffegqwes,5,32,2,11,2,1,1,1,1,98,1,
2024-05-16T09:24:00.755452,1715851440.7554626,proposal,v0bpsxm2,e104xl4i,5,30,1,9,4,1,0,1,45,0,45,
2024-05-16T09:24:01.464569,1715851441.464582,proposal,v0bpsxm2,xpnyaewq,5,9,2,3,4,1,1,1,40,30,30,
2024-05-16T09:24:06.955896,1715851446.9559112,proposal,v0bpsxm2,e104xl4i,5,30,1,9,5,1,1,0,45,45,0,
2024-05-16T09:24:21.131312,1715851461.131324,proposal,v0bpsxm2,xpnyaewq,5,9,2,3,5,1,1,1,34,33,33,
2024-05-16T09:24:37.929772,1715851477.9297824,proposal,v0bpsxm2,g4jckmms,5,22,2,8,3,1,1,0,50,40,0,
2024-05-16T09:25:00.383246,1715851500.383256,proposal,v0bpsxm2,1tsbadmg,5,15,1,5,4,1,0,1,45,0,45,
2024-05-16T09:25:16.909057,1715851516.90907,proposal,v0bpsxm2,gbwqq0rs,5,36,1,11,3,1,0,1,45,0,45,
2024-05-16T09:25:32.824670,1715851532.8246796,proposal,v0bpsxm2,kfgiympu,5,24,1,7,5,1,1,0,50,40,0,
2024-05-16T09:25:33.776934,1715851533.7769475,proposal,v0bpsxm2,ggrdd5iq,5,23,3,8,4,1,0,1,55,0,35,
2024-05-16T09:25:43.154145,1715851543.1541553,proposal,v0bpsxm2,j9s0vm81,5,28,1,10,3,1,1,1,38,31,31,
2024-05-16T09:25:44.557812,1715851544.5578246,proposal,v0bpsxm2,ffegqwes,5,32,2,11,4,1,1,1,1,1,98,
2024-05-16T09:26:30.441298,1715851590.4413095,proposal,v0bpsxm2,gbwqq0rs,5,36,1,11,5,1,1,1,1,1,1,
2024-05-16T09:27:20.831867,1715851640.8318787,proposal,v0bpsxm2,1tsbadmg,5,15,1,5,5,1,1,1,40,30,30,
2024-05-16T09:27:26.710433,1715851646.710446,proposal,v0bpsxm2,cji72u0e,5,25,2,10,4,1,1,0,45,45,0,
2024-05-16T09:27:27.204920,1715851647.204931,proposal,v0bpsxm2,pgzf722x,5,27,3,9,6,1,0,1,50,0,40,
2024-05-16T09:27:43.070237,1715851663.070248,proposal,v0bpsxm2,pe10l88m,5,14,2,5,6,1,1,0,50,40,0,
2024-05-16T09:28:23.799327,1715851703.7993371,proposal,v0bpsxm2,58qtb8v6,6,2,2,1,1,1,1,1,33,33,33,
2024-05-16T09:28:26.202442,1715851706.2024522,proposal,v0bpsxm2,uocdifm0,6,8,3,3,1,1,1,1,34,33,33,
2024-05-16T09:28:26.298341,1715851706.2983515,proposal,v0bpsxm2,pe10l88m,6,14,3,5,1,1,1,1,34,33,33,
2024-05-16T09:28:29.347997,1715851709.3480058,proposal,v0bpsxm2,vmtvitch,6,31,1,11,1,1,1,0,55,35,0,
2024-05-16T09:28:30.628314,1715851710.6283278,proposal,v0bpsxm2,lhcqgubk,6,17,2,6,1,1,1,1,34,33,33,
2024-05-16T09:28:31.010994,1715851711.0110211,proposal,v0bpsxm2,pgzf722x,6,27,1,10,1,1,1,0,50,40,0,
2024-05-16T09:28:34.022483,1715851714.0224946,proposal,v0bpsxm2,xpnyaewq,6,9,2,4,1,1,1,1,34,33,33,
2024-05-16T09:28:34.077338,1715851714.0773485,proposal,v0bpsxm2,1tsbadmg,6,15,1,6,2,1,1,0,45,45,0,
2024-05-16T09:28:34.125924,1715851714.1259353,proposal,v0bpsxm2,b3u444ci,6,3,1,2,1,1,1,1,34,33,33,
2024-05-16T09:28:35.513335,1715851715.5133467,proposal,v0bpsxm2,b5octfmz,6,21,2,8,1,1,1,1,40,30,30,
2024-05-16T09:28:35.612629,1715851715.6126409,proposal,v0bpsxm2,pgzf722x,6,27,1,10,2,1,0,1,50,0,40,
2024-05-16T09:28:36.773562,1715851716.773574,proposal,v0bpsxm2,j9s0vm81,6,28,3,9,1,1,1,1,40,30,30,
2024-05-16T09:28:37.025278,1715851717.0252914,proposal,v0bpsxm2,m3jyk7ro,6,29,2,10,3,1,1,1,34,33,33,
2024-05-16T09:28:38.711420,1715851718.7114317,proposal,v0bpsxm2,0l3xkh9f,6,26,2,9,2,1,1,1,33,34,33,
2024-05-16T09:28:40.255245,1715851720.2552614,proposal,v0bpsxm2,uocdifm0,6,8,3,3,2,1,1,1,50,10,40,
2024-05-16T09:28:40.350974,1715851720.350987,proposal,v0bpsxm2,3bod94tp,6,19,2,7,1,1,1,1,40,30,30,
2024-05-16T09:28:40.677273,1715851720.6772869,proposal,v0bpsxm2,ffegqwes,6,32,2,11,2,1,1,1,34,33,33,
2024-05-16T09:28:41.213507,1715851721.2135165,proposal,v0bpsxm2,e104xl4i,6,30,3,10,4,1,1,1,34,32,32,
2024-05-16T09:28:41.963281,1715851721.963292,proposal,v0bpsxm2,p7ldsgd8,6,18,3,6,3,1,0,1,50,0,40,
2024-05-16T09:28:43.007034,1715851723.0070443,proposal,v0bpsxm2,0urjtojp,6,20,1,7,2,1,1,0,60,30,0,
2024-05-16T09:28:43.389169,1715851723.3891797,proposal,v0bpsxm2,nvbhjz3i,6,11,1,4,2,1,0,1,50,0,40,
2024-05-16T09:28:47.798044,1715851727.798055,proposal,v0bpsxm2,g4jckmms,6,22,3,7,3,1,1,1,40,30,30,
2024-05-16T09:28:48.466686,1715851728.4666982,proposal,v0bpsxm2,cji72u0e,6,25,1,9,3,1,0,1,50,0,40,
2024-05-16T09:28:49.883515,1715851729.8835263,proposal,v0bpsxm2,kfgiympu,6,24,3,8,2,1,1,1,34,33,33,
2024-05-16T09:28:50.999504,1715851730.9995177,proposal,v0bpsxm2,0urjtojp,6,20,1,7,4,1,0,1,60,0,30,
2024-05-16T09:28:53.793337,1715851733.7933517,proposal,v0bpsxm2,pgzf722x,6,27,1,10,5,1,1,1,36,32,32,
2024-05-16T09:28:56.265259,1715851736.2652705,proposal,v0bpsxm2,gbwqq0rs,6,36,1,12,1,1,1,1,34,33,33,
2024-05-16T09:29:05.715219,1715851745.7152364,proposal,v0bpsxm2,cji72u0e,6,25,1,9,4,1,1,0,50,40,0,
2024-05-16T09:29:12.900181,1715851752.9001925,proposal,v0bpsxm2,xpnyaewq,6,9,2,4,3,1,1,0,60,30,0,
2024-05-16T09:29:30.569532,1715851770.569546,proposal,v0bpsxm2,vgs79s7u,6,1,1,1,2,1,1,1,60,20,20,
2024-05-16T09:29:41.432967,1715851781.432982,proposal,v0bpsxm2,lhcqgubk,6,17,2,6,4,1,1,0,70,20,0,
2024-05-16T09:30:26.681778,1715851826.6817925,proposal,v0bpsxm2,gbwqq0rs,6,36,1,12,2,1,1,1,1,1,1,
2024-05-16T09:30:32.815639,1715851832.8156512,proposal,v0bpsxm2,j9s0vm81,6,28,3,9,5,1,1,1,33,33,33,
2024-05-16T09:30:33.223151,1715851833.2231638,proposal,v0bpsxm2,1tsbadmg,6,15,1,6,5,1,1,1,50,20,20,
2024-05-16T09:30:49.531076,1715851849.5310893,proposal,v0bpsxm2,p7ldsgd8,6,18,3,6,6,1,1,1,40,30,30,
2024-05-16T09:30:49.879668,1715851849.8796835,proposal,v0bpsxm2,vmtvitch,6,31,1,11,3,1,0,1,55,0,35,
2024-05-16T09:30:56.389843,1715851856.3898516,proposal,v0bpsxm2,h8nknrk3,6,12,3,4,4,0,0,0,0,0,0,
2024-05-16T09:30:59.869569,1715851859.8695846,proposal,v0bpsxm2,j9s0vm81,6,28,3,9,6,1,1,1,34,33,33,
2024-05-16T09:31:10.138933,1715851870.1389463,proposal,v0bpsxm2,ggrdd5iq,6,23,1,8,3,1,1,0,50,40,0,
2024-05-16T09:31:15.866493,1715851875.8665054,proposal,v0bpsxm2,ggrdd5iq,6,23,1,8,4,1,0,1,50,0,40,
2024-05-16T09:31:23.405470,1715851883.4054832,proposal,v0bpsxm2,ffegqwes,6,32,2,11,4,1,1,1,12,44,44,
2024-05-16T09:31:33.135222,1715851893.1352324,proposal,v0bpsxm2,b5octfmz,6,21,2,8,5,1,1,1,36,32,32,
2024-05-16T09:31:35.914581,1715851895.914597,proposal,v0bpsxm2,j9s0vm81,6,28,3,9,7,1,1,1,36,32,32,
2024-05-16T09:31:43.103650,1715851903.1036625,proposal,v0bpsxm2,ggrdd5iq,6,23,1,8,6,1,0,1,55,0,35,
2024-05-16T09:31:46.724472,1715851906.7244973,proposal,v0bpsxm2,vgs79s7u,6,1,1,1,3,1,1,1,50,25,25,
2024-05-16T09:32:01.693214,1715851921.6932232,proposal,v0bpsxm2,b5octfmz,6,21,2,8,7,1,1,0,60,30,0,
2024-05-16T09:32:36.041822,1715851956.0418339,proposal,v0bpsxm2,vgs79s7u,6,1,1,1,4,1,1,1,40,30,30,
2024-05-16T09:32:37.898170,1715851957.8981826,proposal,v0bpsxm2,xpnyaewq,6,9,2,4,5,1,1,1,40,30,30,
2024-05-16T09:32:46.825632,1715851966.825643,proposal,v0bpsxm2,vmtvitch,6,31,1,11,5,1,1,1,40,30,30,
2024-05-16T09:32:55.611654,1715851975.611665,proposal,v0bpsxm2,ggrdd5iq,6,23,1,8,8,1,1,0,70,20,0,
2024-05-16T09:33:07.736849,1715851987.7368648,proposal,v0bpsxm2,kfgiympu,6,24,3,8,9,1,0,1,65,0,25,
2024-05-16T12:02:13.232290,1715860933.2323008,proposal,m7xcm95f,5kr8656h,1,32,3,12,1,1,1,1,34,33,33,
2024-05-16T12:02:17.198847,1715860937.198858,proposal,m7xcm95f,uz2kh32u,1,4,1,2,1,1,1,1,34,33,33,
2024-05-16T12:02:17.278051,1715860937.2780628,proposal,m7xcm95f,08vr2i2p,1,23,2,7,1,1,1,1,34,33,33,
2024-05-16T12:02:20.254247,1715860940.2542615,proposal,m7xcm95f,clb9mrb7,1,31,3,11,1,1,1,1,30,35,35,
2024-05-16T12:02:20.364080,1715860940.364093,proposal,m7xcm95f,1lilrmry,1,17,2,5,1,1,1,1,34,33,33,
2024-05-16T12:02:21.402264,1715860941.4022753,proposal,m7xcm95f,6nh54ceg,1,3,3,1,1,1,1,1,30,30,40,
2024-05-16T12:02:21.907562,1715860941.9075735,proposal,m7xcm95f,nlkaxz3o,1,18,1,6,1,1,1,1,40,30,30,
2024-05-16T12:02:26.813008,1715860946.813018,proposal,m7xcm95f,qvoffcsq,1,26,3,10,1,1,1,1,33,33,33,
2024-05-16T12:02:27.588307,1715860947.5883164,proposal,m7xcm95f,iowjjdnx,1,30,2,10,2,1,1,0,15,15,0,
2024-05-16T12:02:29.512497,1715860949.5125108,proposal,m7xcm95f,6e0212tp,1,12,1,4,1,1,1,1,34,33,33,
2024-05-16T12:02:30.068675,1715860950.068685,proposal,m7xcm95f,ltuj7l8u,1,33,1,11,2,1,1,1,40,30,30,
2024-05-16T12:02:31.850347,1715860951.8503566,proposal,m7xcm95f,1r7pqbse,1,22,2,8,1,1,1,1,33,33,33,
2024-05-16T12:02:36.113427,1715860956.113439,proposal,m7xcm95f,tn7aqwzf,1,29,1,9,1,1,1,1,34,33,33,
2024-05-16T12:02:38.950139,1715860958.9501536,proposal,m7xcm95f,l4gotjl7,1,11,2,3,1,1,1,1,33,34,33,
2024-05-16T12:02:39.564948,1715860959.5649586,proposal,m7xcm95f,f6i1zolp,1,8,3,4,2,1,1,1,34,33,33,
2024-05-16T12:02:46.950887,1715860966.9508994,proposal,m7xcm95f,6ydcbl9r,1,2,3,2,2,1,1,1,33,33,33,
2024-05-16T12:02:49.057377,1715860969.0573874,proposal,m7xcm95f,j5qn3qbk,1,24,1,8,2,1,1,1,60,20,20,
2024-05-16T12:02:49.404441,1715860969.4044526,proposal,m7xcm95f,xhpv93ls,1,1,1,1,2,1,1,1,40,30,30,
2024-05-16T12:02:51.021392,1715860971.0214021,proposal,m7xcm95f,r786u409,1,28,1,10,3,1,1,1,33,33,33,
2024-05-16T12:02:52.439486,1715860972.4394972,proposal,m7xcm95f,wmh3d1u0,1,34,1,12,2,1,1,0,18,12,0,
2024-05-16T12:02:52.539307,1715860972.5393176,proposal,m7xcm95f,yfbqk3u0,1,6,2,2,3,1,1,1,33,33,33,
2024-05-16T12:02:54.196853,1715860974.1968644,proposal,m7xcm95f,2xw6wott,1,7,1,3,2,1,1,1,34,33,33,
2024-05-16T12:02:54.757227,1715860974.7572422,proposal,m7xcm95f,iowjjdnx,1,30,2,10,4,1,1,1,45,35,20,
2024-05-16T12:02:54.984943,1715860974.9849558,proposal,m7xcm95f,lgc4n3dh,1,16,2,6,2,1,1,1,40,20,40,
2024-05-16T12:03:02.948938,1715860982.9489496,proposal,m7xcm95f,rcu7iixo,1,35,2,11,3,1,1,1,20,40,40,
2024-05-16T12:03:08.444341,1715860988.444352,proposal,m7xcm95f,d4lo3zf6,1,9,3,3,3,1,1,1,33,33,33,
2024-05-16T12:03:16.747968,1715860996.7479844,proposal,m7xcm95f,2xw6wott,1,7,1,3,4,1,1,1,33,33,33,
2024-05-16T12:03:18.806691,1715860998.8067029,proposal,m7xcm95f,6nh54ceg,1,3,3,1,3,1,1,1,49,1,50,
2024-05-16T12:03:20.089489,1715861000.0895073,proposal,m7xcm95f,uz2kh32u,1,4,1,2,4,1,1,1,33,33,33,
2024-05-16T12:03:22.389742,1715861002.3897555,proposal,m7xcm95f,hjneoci2,1,25,3,9,2,1,1,1,35,30,35,
2024-05-16T12:03:33.936726,1715861013.936737,proposal,m7xcm95f,ktt5knkc,1,15,3,5,2,1,1,1,34,33,33,
2024-05-16T12:03:51.284206,1715861031.2842188,proposal,m7xcm95f,lv2l10fd,1,27,2,9,3,1,1,1,35,35,30,
2024-05-16T12:03:54.007452,1715861034.007463,proposal,m7xcm95f,j5qn3qbk,1,24,1,8,3,1,1,1,50,25,25,
2024-05-16T12:03:57.317032,1715861037.3170445,proposal,m7xcm95f,6nwz387q,1,20,3,8,4,1,1,1,40,30,30,
2024-05-16T12:04:14.309261,1715861054.309272,proposal,m7xcm95f,6nh54ceg,1,3,3,1,4,1,0,1,15,0,15,
2024-05-16T12:04:53.381541,1715861093.3815536,proposal,m7xcm95f,sfscz3mv,1,5,2,1,5,1,1,1,40,30,30,
2024-05-16T12:05:37.570432,1715861137.5704427,proposal,m7xcm95f,clb9mrb7,1,31,3,11,4,1,1,1,33,33,33,
2024-05-16T12:08:41.525731,1715861321.525741,proposal,m7xcm95f,g0slo89x,2,13,3,5,1,1,1,1,34,33,33,
2024-05-16T12:08:43.276037,1715861323.2760549,proposal,m7xcm95f,5zlvsjpa,2,36,2,11,1,1,1,1,34,33,33,
2024-05-16T12:08:44.307516,1715861324.307527,proposal,m7xcm95f,1lilrmry,2,17,2,5,2,1,1,1,34,33,33,
2024-05-16T12:08:45.741700,1715861325.7417073,proposal,m7xcm95f,uz2kh32u,2,4,2,2,1,1,1,1,33,33,33,
2024-05-16T12:08:45.947360,1715861325.947371,proposal,m7xcm95f,5kr8656h,2,32,3,12,1,1,1,1,34,33,33,
2024-05-16T12:08:46.039711,1715861326.0397215,proposal,m7xcm95f,qvoffcsq,2,26,3,10,1,1,1,1,33,33,33,
2024-05-16T12:08:47.164111,1715861327.1641219,proposal,m7xcm95f,08vr2i2p,2,23,3,7,1,1,1,1,34,33,33,
2024-05-16T12:08:47.985152,1715861327.985163,proposal,m7xcm95f,d4lo3zf6,2,9,1,4,1,1,1,1,33,33,33,
2024-05-16T12:08:48.141937,1715861328.1419468,proposal,m7xcm95f,la48qhop,2,19,1,7,2,1,1,1,34,33,33,
2024-05-16T12:08:48.843531,1715861328.8435411,proposal,m7xcm95f,wmh3d1u0,2,34,2,12,2,1,1,1,34,33,33,
2024-05-16T12:08:49.812217,1715861329.812241,proposal,m7xcm95f,l4gotjl7,2,11,3,3,1,1,1,1,33,33,33,
2024-05-16T12:08:49.909766,1715861329.9097776,proposal,m7xcm95f,6nh54ceg,2,3,1,2,2,1,1,1,60,20,20,
2024-05-16T12:08:50.597378,1715861330.597391,proposal,m7xcm95f,hjneoci2,2,25,1,9,1,1,1,1,34,33,33,
2024-05-16T12:08:51.207943,1715861331.2079532,proposal,m7xcm95f,ltuj7l8u,2,33,1,12,3,1,1,1,34,33,33,
2024-05-16T12:08:51.357489,1715861331.3575025,proposal,m7xcm95f,sfscz3mv,2,5,2,1,1,1,1,1,35,35,30,
2024-05-16T12:08:51.381423,1715861331.3814332,proposal,m7xcm95f,1r7pqbse,2,22,2,8,1,1,1,1,34,33,33,
2024-05-16T12:08:55.139256,1715861335.1392684,proposal,m7xcm95f,f6i1zolp,2,8,3,4,2,1,1,1,34,33,33,
2024-05-16T12:08:55.891572,1715861335.8915823,proposal,m7xcm95f,6nh54ceg,2,3,1,2,3,1,1,1,60,20,20,
2024-05-16T12:08:56.546167,1715861336.546181,proposal,m7xcm95f,r786u409,2,28,1,10,2,1,1,1,33,33,33,
2024-05-16T12:08:57.792829,1715861337.7928407,proposal,m7xcm95f,iowjjdnx,2,30,2,9,2,1,1,1,33,33,33,
2024-05-16T12:08:58.247462,1715861338.247473,proposal,m7xcm95f,6nwz387q,2,20,3,8,2,1,1,1,40,30,30,
2024-05-16T12:09:03.061130,1715861343.0611413,proposal,m7xcm95f,lgc4n3dh,2,16,2,6,1,1,1,1,40,30,30,
2024-05-16T12:09:15.313834,1715861355.313844,proposal,m7xcm95f,xhpv93ls,2,1,3,1,2,1,1,1,36,32,32,
2024-05-16T12:09:29.275062,1715861369.2750726,proposal,m7xcm95f,l4gotjl7,2,11,3,3,2,1,1,1,34,33,33,
2024-05-16T12:09:39.452827,1715861379.4528375,proposal,m7xcm95f,yfbqk3u0,2,6,1,1,3,1,1,1,34,33,33,
2024-05-16T12:09:45.177965,1715861385.1779757,proposal,m7xcm95f,sfscz3mv,2,5,2,1,4,1,1,1,34,33,33,
2024-05-16T12:09:59.077554,1715861399.0775676,proposal,m7xcm95f,196u6lli,2,14,3,6,2,1,1,1,34,33,33,
2024-05-16T12:10:32.030393,1715861432.030402,proposal,m7xcm95f,6nh54ceg,2,3,1,2,4,1,1,1,50,25,25,
2024-05-16T12:10:51.843630,1715861451.8436415,proposal,m7xcm95f,uz2kh32u,2,4,2,2,5,1,1,1,34,33,33,
2024-05-16T12:11:31.019210,1715861491.0192213,proposal,m7xcm95f,6nh54ceg,2,3,1,2,6,1,1,1,40,30,30,
2024-05-16T12:12:31.104442,1715861551.1044533,proposal,m7xcm95f,6nh54ceg,2,3,1,2,7,1,1,0,20,10,0,
2024-05-16T12:14:36.472076,1715861676.4720895,proposal,m7xcm95f,g0slo89x,3,13,2,6,1,1,1,1,34,33,33,
2024-05-16T12:14:37.640008,1715861677.6400197,proposal,m7xcm95f,5zlvsjpa,3,36,3,12,1,1,1,1,34,33,33,
2024-05-16T12:14:38.166585,1715861678.1665998,proposal,m7xcm95f,5kr8656h,3,32,1,12,2,1,1,1,34,33,33,
2024-05-16T12:14:38.821271,1715861678.821285,proposal,m7xcm95f,d4lo3zf6,3,9,2,3,1,1,1,1,33,34,33,
2024-05-16T12:14:38.901042,1715861678.9010565,proposal,m7xcm95f,l4gotjl7,3,11,1,3,2,1,1,1,34,33,33,
2024-05-16T12:14:39.867331,1715861679.867342,proposal,m7xcm95f,la48qhop,3,19,2,8,1,1,1,1,34,33,33,
2024-05-16T12:14:40.861454,1715861680.861463,proposal,m7xcm95f,clb9mrb7,3,31,2,12,3,1,1,1,34,33,33,
2024-05-16T12:14:41.351655,1715861681.3516643,proposal,m7xcm95f,hjneoci2,3,25,2,10,1,1,1,1,33,33,33,
2024-05-16T12:14:42.052674,1715861682.0526853,proposal,m7xcm95f,uz2kh32u,3,4,1,1,1,1,1,1,34,33,33,
2024-05-16T12:14:42.441833,1715861682.4418461,proposal,m7xcm95f,wmh3d1u0,3,34,3,11,1,1,1,1,34,33,33,
2024-05-16T12:14:43.034704,1715861683.034715,proposal,m7xcm95f,6ydcbl9r,3,2,1,2,1,1,1,1,40,30,30,
2024-05-16T12:14:44.060952,1715861684.0609632,proposal,m7xcm95f,1lilrmry,3,17,2,5,1,1,1,1,34,33,33,
2024-05-16T12:14:44.569253,1715861684.5692668,proposal,m7xcm95f,ktt5knkc,3,15,1,5,2,1,1,1,34,33,33,
2024-05-16T12:14:44.908693,1715861684.9087038,proposal,m7xcm95f,lv2l10fd,3,27,2,9,1,1,1,1,33,33,33,
2024-05-16T12:14:44.979657,1715861684.979668,proposal,m7xcm95f,6nh54ceg,3,3,3,1,2,1,1,1,34,33,33,
2024-05-16T12:14:45.456240,1715861685.4562538,proposal,m7xcm95f,08vr2i2p,3,23,1,7,1,1,1,1,34,33,33,
2024-05-16T12:14:47.055715,1715861687.0557258,proposal,m7xcm95f,sfscz3mv,3,5,2,1,3,1,1,1,35,35,30,
2024-05-16T12:14:47.200557,1715861687.2005672,proposal,m7xcm95f,2xw6wott,3,7,2,4,1,1,1,1,34,33,33,
2024-05-16T12:14:47.219074,1715861687.2190917,proposal,m7xcm95f,f6i1zolp,3,8,1,4,2,1,1,1,34,33,33,
2024-05-16T12:14:48.683566,1715861688.683577,proposal,m7xcm95f,1r7pqbse,3,22,3,7,2,1,1,1,34,33,33,
2024-05-16T12:14:50.150331,1715861690.1503468,proposal,m7xcm95f,xhpv93ls,3,1,2,2,2,1,1,1,34,33,33,
2024-05-16T12:15:10.050647,1715861710.050657,proposal,m7xcm95f,lgc4n3dh,3,16,3,5,3,1,1,1,34,33,33,
2024-05-16T12:15:16.906929,1715861716.9069412,proposal,m7xcm95f,6nwz387q,3,20,1,8,2,1,1,1,40,30,30,
2024-05-16T12:15:17.711999,1715861717.7120118,proposal,m7xcm95f,ltuj7l8u,3,33,1,11,2,1,1,1,34,33,33,
2024-05-16T12:15:34.127452,1715861734.1274621,proposal,m7xcm95f,tn7aqwzf,3,29,1,9,2,1,1,1,50,49,1,
2024-05-16T12:15:37.501314,1715861737.5013268,proposal,m7xcm95f,qvoffcsq,3,26,1,10,2,1,1,1,40,30,30,
2024-05-16T12:16:09.830017,1715861769.830028,proposal,m7xcm95f,iowjjdnx,3,30,3,10,3,1,1,1,36,32,32,
2024-05-16T12:16:42.117849,1715861802.1178598,proposal,m7xcm95f,hjneoci2,3,25,2,10,4,1,1,1,33,34,33,
2024-05-16T12:16:58.590256,1715861818.5902689,proposal,m7xcm95f,r786u409,3,28,3,9,3,1,1,1,34,33,33,
2024-05-16T12:18:06.313265,1715861886.3132758,proposal,m7xcm95f,j5qn3qbk,3,24,3,8,3,1,1,1,36,32,32,
2024-05-16T12:18:53.746649,1715861933.7466598,proposal,m7xcm95f,tn7aqwzf,3,29,1,9,4,1,1,0,15,15,0,
2024-05-16T12:19:57.858606,1715861997.8586168,proposal,m7xcm95f,g0slo89x,4,13,1,6,1,1,1,1,34,33,33,
2024-05-16T12:19:59.976271,1715861999.9762862,proposal,m7xcm95f,5kr8656h,4,32,3,12,1,1,1,1,34,33,33,
2024-05-16T12:20:00.296305,1715862000.2963338,proposal,m7xcm95f,5zlvsjpa,4,36,1,11,1,1,1,1,34,33,33,
2024-05-16T12:20:00.324109,1715862000.3241196,proposal,m7xcm95f,clb9mrb7,4,31,1,12,2,1,1,1,34,33,33,
2024-05-16T12:20:00.837121,1715862000.8371332,proposal,m7xcm95f,2xw6wott,4,7,2,4,1,1,1,1,34,33,33,
2024-05-16T12:20:01.135195,1715862001.1352131,proposal,m7xcm95f,uz2kh32u,4,4,2,1,1,1,1,1,33,33,33,
2024-05-16T12:20:01.312152,1715862001.3121817,proposal,m7xcm95f,1r7pqbse,4,22,2,7,1,1,1,1,34,33,33,
2024-05-16T12:20:03.368269,1715862003.3682845,proposal,m7xcm95f,nlkaxz3o,4,18,3,5,1,1,1,1,34,33,33,
2024-05-16T12:20:05.186859,1715862005.1868725,proposal,m7xcm95f,lv2l10fd,4,27,2,10,1,1,1,1,33,33,33,
2024-05-16T12:20:05.327118,1715862005.327132,proposal,m7xcm95f,6ydcbl9r,4,2,3,2,1,1,1,1,33,33,34,
2024-05-16T12:20:05.762492,1715862005.7625055,proposal,m7xcm95f,xhpv93ls,4,1,2,2,2,1,1,1,34,33,33,
2024-05-16T12:20:05.962448,1715862005.9624617,proposal,m7xcm95f,fns79vh4,4,21,2,8,1,1,1,1,34,33,33,
2024-05-16T12:20:06.798589,1715862006.7986035,proposal,m7xcm95f,kn00nazp,4,10,2,3,1,1,1,1,34,33,33,
2024-05-16T12:20:08.060885,1715862008.0609043,proposal,m7xcm95f,6nwz387q,4,20,3,8,2,1,1,1,40,30,30,
2024-05-16T12:20:08.081687,1715862008.0816975,proposal,m7xcm95f,6nh54ceg,4,3,1,2,3,1,1,1,40,30,30,
2024-05-16T12:20:08.135896,1715862008.1359088,proposal,m7xcm95f,la48qhop,4,19,1,8,3,1,1,1,40,30,30,
2024-05-16T12:20:09.559445,1715862009.5594587,proposal,m7xcm95f,sfscz3mv,4,5,3,1,2,1,1,1,34,33,33,
2024-05-16T12:20:10.471645,1715862010.4716585,proposal,m7xcm95f,iowjjdnx,4,30,3,9,1,1,1,1,33,33,33,
2024-05-16T12:20:11.147713,1715862011.1477218,proposal,m7xcm95f,j5qn3qbk,4,24,1,7,2,1,1,1,50,25,25,
2024-05-16T12:20:11.201574,1715862011.2015846,proposal,m7xcm95f,ltuj7l8u,4,33,2,12,3,1,1,1,34,33,33,
2024-05-16T12:20:17.574970,1715862017.5749812,proposal,m7xcm95f,lgc4n3dh,4,16,2,5,2,1,1,1,34,33,33,
2024-05-16T12:20:47.708215,1715862047.7082257,proposal,m7xcm95f,tn7aqwzf,4,29,1,9,2,1,1,1,34,33,33,
2024-05-16T12:20:54.206539,1715862054.2065494,proposal,m7xcm95f,1lilrmry,4,17,1,5,3,1,1,1,40,30,30,
2024-05-16T12:21:11.526608,1715862071.526621,proposal,m7xcm95f,hjneoci2,4,25,1,10,2,1,1,1,33,33,34,
2024-05-16T12:22:07.715364,1715862127.715374,proposal,m7xcm95f,hjneoci2,4,25,1,10,3,1,1,1,30,40,30,
2024-05-16T12:22:37.439334,1715862157.4393437,proposal,m7xcm95f,6nh54ceg,4,3,1,2,4,1,1,1,36,32,32,
2024-05-16T12:22:44.527798,1715862164.5278134,proposal,m7xcm95f,j5qn3qbk,4,24,1,7,3,1,1,1,44,28,28,
2024-05-16T12:22:59.951279,1715862179.9512923,proposal,m7xcm95f,1r7pqbse,4,22,2,7,4,1,1,1,40,30,30,
2024-05-16T12:23:04.873349,1715862184.8733602,proposal,m7xcm95f,hjneoci2,4,25,1,10,4,1,1,1,40,30,30,
2024-05-16T12:23:28.008576,1715862208.008589,proposal,m7xcm95f,l4gotjl7,4,11,3,3,2,1,1,1,12,26,62,
2024-05-16T12:23:29.403555,1715862209.403566,proposal,m7xcm95f,6nh54ceg,4,3,1,2,5,1,1,0,25,5,0,
2024-05-16T12:25:19.217120,1715862319.2171333,proposal,m7xcm95f,g0slo89x,5,13,1,6,1,1,1,1,34,33,33,
2024-05-16T12:25:20.079964,1715862320.0799751,proposal,m7xcm95f,5zlvsjpa,5,36,3,11,1,1,1,1,34,33,33,
2024-05-16T12:25:21.420881,1715862321.4208913,proposal,m7xcm95f,l4gotjl7,5,11,3,4,1,1,1,1,34,33,33,
2024-05-16T12:25:21.442982,1715862321.4429934,proposal,m7xcm95f,5kr8656h,5,32,1,11,2,1,1,1,34,33,33,
2024-05-16T12:25:21.805253,1715862321.8052642,proposal,m7xcm95f,clb9mrb7,5,31,1,12,1,1,1,1,34,33,33,
2024-05-16T12:25:22.269375,1715862322.2693868,proposal,m7xcm95f,2xw6wott,5,7,2,4,2,1,1,1,34,33,33,
2024-05-16T12:25:23.035851,1715862323.035862,proposal,m7xcm95f,qvoffcsq,5,26,2,9,1,1,1,1,33,33,33,
2024-05-16T12:25:23.310647,1715862323.3106573,proposal,m7xcm95f,la48qhop,5,19,2,8,1,1,1,1,34,33,33,
2024-05-16T12:25:23.998961,1715862323.9989712,proposal,m7xcm95f,j5qn3qbk,5,24,3,7,1,1,1,1,34,33,33,
2024-05-16T12:25:24.107793,1715862324.1078038,proposal,m7xcm95f,sfscz3mv,5,5,3,2,1,1,1,1,34,33,33,
2024-05-16T12:25:24.297437,1715862324.297448,proposal,m7xcm95f,nlkaxz3o,5,18,1,5,1,1,1,1,50,25,25,
2024-05-16T12:25:24.395688,1715862324.3957014,proposal,m7xcm95f,1r7pqbse,5,22,3,8,2,1,1,1,34,33,33,
2024-05-16T12:25:25.093776,1715862325.0937874,proposal,m7xcm95f,08vr2i2p,5,23,1,8,3,1,1,1,38,31,31,
2024-05-16T12:25:25.817476,1715862325.817486,proposal,m7xcm95f,d4lo3zf6,5,9,3,3,1,1,1,1,34,33,33,
2024-05-16T12:25:28.868416,1715862328.8684263,proposal,m7xcm95f,6ydcbl9r,5,2,2,1,1,1,1,1,34,33,33,
2024-05-16T12:25:29.443455,1715862329.4434655,proposal,m7xcm95f,iowjjdnx,5,30,1,9,2,1,1,1,50,25,25,
2024-05-16T12:25:32.175934,1715862332.175944,proposal,m7xcm95f,yfbqk3u0,5,6,1,1,2,1,1,1,34,33,33,
2024-05-16T12:25:33.101169,1715862333.1011782,proposal,m7xcm95f,lgc4n3dh,5,16,2,6,2,1,1,1,34,33,33,
2024-05-16T12:25:34.357661,1715862334.357672,proposal,m7xcm95f,ktt5knkc,5,15,3,5,2,1,1,1,34,33,33,
2024-05-16T12:25:35.107007,1715862335.107016,proposal,m7xcm95f,196u6lli,5,14,2,5,3,1,1,1,34,33,33,
2024-05-16T12:25:35.677693,1715862335.677703,proposal,m7xcm95f,ltuj7l8u,5,33,2,11,3,1,1,1,34,33,33,
2024-05-16T12:25:48.268107,1715862348.2681198,proposal,m7xcm95f,08vr2i2p,5,23,1,8,4,1,1,1,36,32,32,
2024-05-16T12:26:13.505212,1715862373.5052295,proposal,m7xcm95f,tn7aqwzf,5,29,3,10,1,1,1,1,30,35,35,
2024-05-16T12:26:26.606421,1715862386.6064317,proposal,m7xcm95f,hjneoci2,5,25,1,10,2,1,1,1,30,30,40,
2024-05-16T12:26:40.789068,1715862400.7890785,proposal,m7xcm95f,nlkaxz3o,5,18,1,5,4,1,1,1,40,30,30,
2024-05-16T12:26:50.843126,1715862410.843139,proposal,m7xcm95f,qvoffcsq,5,26,2,9,3,1,1,1,40,30,30,
2024-05-16T12:26:53.756059,1715862413.75607,proposal,m7xcm95f,xhpv93ls,5,1,1,2,2,1,1,1,36,32,32,
2024-05-16T12:27:07.877579,1715862427.877591,proposal,m7xcm95f,fns79vh4,5,21,1,7,2,1,1,1,50,25,25,
2024-05-16T12:27:54.387825,1715862474.3878396,proposal,m7xcm95f,rcu7iixo,5,35,3,12,2,1,1,1,40,30,30,
2024-05-16T12:27:57.291844,1715862477.2918534,proposal,m7xcm95f,sfscz3mv,5,5,3,2,3,1,1,1,30,35,35,
2024-05-16T12:27:59.649134,1715862479.649145,proposal,m7xcm95f,wmh3d1u0,5,34,2,12,3,1,1,0,15,15,0,
2024-05-16T12:28:04.617752,1715862484.6177635,proposal,m7xcm95f,wmh3d1u0,5,34,2,12,4,1,0,1,15,0,15,
2024-05-16T12:28:24.689519,1715862504.6895294,proposal,m7xcm95f,rcu7iixo,5,35,3,12,5,1,0,1,16,0,14,
2024-05-16T12:28:27.629751,1715862507.6297681,proposal,m7xcm95f,clb9mrb7,5,31,1,12,6,1,1,1,36,32,32,
2024-05-16T12:28:46.378023,1715862526.3780334,proposal,m7xcm95f,clb9mrb7,5,31,1,12,7,1,0,1,20,0,10,
2024-05-16T12:28:51.409950,1715862531.40996,proposal,m7xcm95f,clb9mrb7,5,31,1,12,8,1,1,0,20,10,0,
2024-05-16T12:28:59.179128,1715862539.1791472,proposal,m7xcm95f,clb9mrb7,5,31,1,12,9,1,1,1,10,10,10,
2024-05-16T12:29:00.719587,1715862540.7196002,proposal,m7xcm95f,wmh3d1u0,5,34,2,12,10,1,1,0,10,20,0,
2024-05-16T12:29:06.287754,1715862546.2877648,proposal,m7xcm95f,rcu7iixo,5,35,3,12,11,1,1,1,32,34,34,
2024-05-16T12:29:37.879859,1715862577.8798702,proposal,m7xcm95f,196u6lli,5,14,2,5,5,1,1,1,36,32,32,
2024-05-16T12:29:41.783317,1715862581.7833288,proposal,m7xcm95f,wmh3d1u0,5,34,2,12,12,1,1,1,30,40,30,
2024-05-16T12:30:49.347235,1715862649.3472478,proposal,m7xcm95f,g0slo89x,6,13,1,5,1,1,1,1,34,33,33,
2024-05-16T12:30:50.303572,1715862650.3035848,proposal,m7xcm95f,5zlvsjpa,6,36,3,12,1,1,1,1,34,33,33,
2024-05-16T12:30:50.404211,1715862650.404223,proposal,m7xcm95f,clb9mrb7,6,31,2,11,1,1,1,1,34,33,33,
2024-05-16T12:30:51.322698,1715862651.3227146,proposal,m7xcm95f,l4gotjl7,6,11,3,4,1,1,1,1,34,33,33,
2024-05-16T12:30:52.314393,1715862652.3144047,proposal,m7xcm95f,5kr8656h,6,32,3,11,2,1,1,1,34,33,33,
2024-05-16T12:30:52.911694,1715862652.911706,proposal,m7xcm95f,2xw6wott,6,7,2,3,1,1,1,1,34,33,33,
2024-05-16T12:30:53.312201,1715862653.3122122,proposal,m7xcm95f,08vr2i2p,6,23,1,8,1,1,1,1,38,31,31,
2024-05-16T12:30:54.236577,1715862654.2365878,proposal,m7xcm95f,1r7pqbse,6,22,3,7,1,1,1,1,34,33,33,
2024-05-16T12:30:55.286144,1715862655.2861524,proposal,m7xcm95f,j5qn3qbk,6,24,3,8,2,1,1,1,34,33,33,
2024-05-16T12:30:56.290634,1715862656.2906444,proposal,m7xcm95f,6ydcbl9r,6,2,2,1,1,1,1,1,34,33,33,
2024-05-16T12:30:59.582955,1715862659.582966,proposal,m7xcm95f,lgc4n3dh,6,16,3,5,2,1,1,1,34,33,33,
2024-05-16T12:30:59.697862,1715862659.6978734,proposal,m7xcm95f,wmh3d1u0,6,34,1,11,3,1,1,1,34,33,33,
2024-05-16T12:30:59.995305,1715862659.9953156,proposal,m7xcm95f,yfbqk3u0,6,6,3,2,1,1,1,1,34,33,33,
2024-05-16T12:31:00.506862,1715862660.5068781,proposal,m7xcm95f,qvoffcsq,6,26,2,9,1,1,1,1,34,33,33,
2024-05-16T12:31:01.195520,1715862661.1955335,proposal,m7xcm95f,ltuj7l8u,6,33,1,12,2,1,1,1,34,33,33,
2024-05-16T12:31:03.025521,1715862663.0255325,proposal,m7xcm95f,iowjjdnx,6,30,1,10,1,1,1,1,90,5,5,
2024-05-16T12:31:06.130793,1715862666.1308067,proposal,m7xcm95f,ktt5knkc,6,15,2,6,1,1,1,1,34,33,33,
2024-05-16T12:31:06.423206,1715862666.4232168,proposal,m7xcm95f,08vr2i2p,6,23,1,8,3,1,1,1,36,32,32,
2024-05-16T12:31:08.844208,1715862668.8442233,proposal,m7xcm95f,tn7aqwzf,6,29,3,10,2,1,1,1,20,40,40,
2024-05-16T12:31:14.011018,1715862674.0110314,proposal,m7xcm95f,lv2l10fd,6,27,2,10,3,1,1,1,34,33,33,
2024-05-16T12:31:17.577058,1715862677.5770712,proposal,m7xcm95f,nlkaxz3o,6,18,3,6,2,1,1,1,36,32,32,
2024-05-16T12:31:19.709055,1715862679.709066,proposal,m7xcm95f,1lilrmry,6,17,1,6,3,1,1,1,40,30,30,
2024-05-16T12:31:27.895576,1715862687.895586,proposal,m7xcm95f,sfscz3mv,6,5,1,2,2,1,1,1,40,30,30,
2024-05-16T12:31:34.945369,1715862694.945381,proposal,m7xcm95f,6nwz387q,6,20,1,7,2,1,1,1,60,20,20,
2024-05-16T12:31:35.719801,1715862695.7198117,proposal,m7xcm95f,iowjjdnx,6,30,1,10,4,1,1,1,83,8,8,
2024-05-16T12:34:12.560103,1715862852.5601141,proposal,m7xcm95f,1r7pqbse,6,22,3,7,3,1,1,1,50,25,25,
2024-05-16T12:34:59.240550,1715862899.2405646,proposal,m7xcm95f,lgc4n3dh,6,16,3,5,3,1,1,1,34,33,33,
2024-05-16T12:35:19.668716,1715862919.6687264,proposal,m7xcm95f,xhpv93ls,6,1,1,1,2,1,1,1,36,32,32,
2024-05-14T09:01:04.990807,1715677264.99082,acceptance,ykdzfw2h,3o2kadzu,1,9,3,3,,,,,,,,1
2024-05-14T09:01:08.579380,1715677268.5793908,acceptance,ykdzfw2h,n6p6kpol,1,21,1,7,,,,,,,,1
2024-05-14T09:01:11.677149,1715677271.6771603,acceptance,ykdzfw2h,10hb91v0,1,14,1,6,,,,,,,,1
2024-05-14T09:01:21.313286,1715677281.3132956,acceptance,ykdzfw2h,93vk2elh,1,22,2,8,,,,,,,,1
2024-05-14T09:01:24.195111,1715677284.1951218,acceptance,ykdzfw2h,275e2ui1,1,18,2,6,,,,,,,,1
2024-05-14T09:01:28.022607,1715677288.0226192,acceptance,ykdzfw2h,bxgty49l,1,19,3,7,,,,,,,,1
2024-05-14T09:01:28.366710,1715677288.366723,acceptance,ykdzfw2h,caq3vqi1,1,24,1,8,,,,,,,,2
2024-05-14T09:01:34.560167,1715677294.5601778,acceptance,ykdzfw2h,wmkt6s6s,1,11,2,3,,,,,,,,1
2024-05-14T09:01:37.923230,1715677297.9232404,acceptance,ykdzfw2h,iwrxhwk3,1,36,1,12,,,,,,,,1
2024-05-14T09:01:38.048958,1715677298.0489664,acceptance,ykdzfw2h,p8983tf0,1,7,1,3,,,,,,,,1
2024-05-14T09:01:39.694348,1715677299.6943605,acceptance,ykdzfw2h,6whe0107,1,13,3,5,,,,,,,,1
2024-05-14T09:01:41.843153,1715677301.8431647,acceptance,ykdzfw2h,qmykdy6l,1,29,2,9,,,,,,,,1
2024-05-14T09:01:45.104416,1715677305.1044285,acceptance,ykdzfw2h,rggxlrld,1,1,3,1,,,,,,,,2
2024-05-14T09:01:45.986018,1715677305.9860277,acceptance,ykdzfw2h,dlal68fq,1,25,3,9,,,,,,,,1
2024-05-14T09:01:53.010326,1715677313.0103388,acceptance,ykdzfw2h,ry0nc01c,1,5,1,1,,,,,,,,2
2024-05-14T09:01:53.721393,1715677313.7214036,acceptance,ykdzfw2h,qirmcohg,1,23,2,7,,,,,,,,2
2024-05-14T09:01:57.535729,1715677317.5357425,acceptance,ykdzfw2h,p8983tf0,1,7,1,3,,,,,,,,1
2024-05-14T09:02:00.366694,1715677320.366705,acceptance,ykdzfw2h,brcpj4zp,1,15,1,5,,,,,,,,1
2024-05-14T09:02:02.243798,1715677322.243808,acceptance,ykdzfw2h,77a6ed9a,1,3,2,1,,,,,,,,2
2024-05-14T09:02:03.170824,1715677323.1708364,acceptance,ykdzfw2h,smddi2bm,1,27,1,9,,,,,,,,1
2024-05-14T09:02:06.146836,1715677326.1468463,acceptance,ykdzfw2h,93vk2elh,1,22,2,8,,,,,,,,1
2024-05-14T09:02:08.195933,1715677328.1959453,acceptance,ykdzfw2h,bxgty49l,1,19,3,7,,,,,,,,2
2024-05-14T09:02:11.291689,1715677331.2917013,acceptance,ykdzfw2h,a8gna0pr,1,4,2,2,,,,,,,,1
2024-05-14T09:02:13.762137,1715677333.7621481,acceptance,ykdzfw2h,n6p6kpol,1,21,1,7,,,,,,,,2
2024-05-14T09:02:16.774205,1715677336.774217,acceptance,ykdzfw2h,69gxbqoq,1,17,2,5,,,,,,,,2
2024-05-14T09:02:17.370082,1715677337.370093,acceptance,ykdzfw2h,iw6538t5,1,6,1,2,,,,,,,,3
2024-05-14T09:02:21.212467,1715677341.2124784,acceptance,ykdzfw2h,2175hu1w,1,32,3,12,,,,,,,,2
2024-05-14T09:02:25.348764,1715677345.348775,acceptance,ykdzfw2h,bv1rchfe,1,34,2,12,,,,,,,,2
2024-05-14T09:02:29.258774,1715677349.2587843,acceptance,ykdzfw2h,a8gna0pr,1,4,2,2,,,,,,,,2
2024-05-14T09:02:31.434761,1715677351.4347725,acceptance,ykdzfw2h,tzz523nu,1,20,3,8,,,,,,,,1
2024-05-14T09:02:32.486388,1715677352.4864,acceptance,ykdzfw2h,275e2ui1,1,18,2,6,,,,,,,,2
2024-05-14T09:02:35.898554,1715677355.8985653,acceptance,ykdzfw2h,iw6538t5,1,6,1,2,,,,,,,,1
2024-05-14T09:02:38.424561,1715677358.424572,acceptance,ykdzfw2h,69gxbqoq,1,17,2,5,,,,,,,,0
2024-05-14T09:02:44.420024,1715677364.420034,acceptance,ykdzfw2h,69gxbqoq,1,17,2,5,,,,,,,,2
2024-05-14T09:02:45.421679,1715677365.4216883,acceptance,ykdzfw2h,275e2ui1,1,18,2,6,,,,,,,,1
2024-05-14T09:02:47.258009,1715677367.2580216,acceptance,ykdzfw2h,a8gna0pr,1,4,2,2,,,,,,,,3
2024-05-14T09:02:56.097994,1715677376.0980062,acceptance,ykdzfw2h,iwrxhwk3,1,36,1,12,,,,,,,,3
2024-05-14T09:02:57.884382,1715677377.8843956,acceptance,ykdzfw2h,brcpj4zp,1,15,1,5,,,,,,,,1
2024-05-14T09:03:04.646694,1715677384.6467054,acceptance,ykdzfw2h,icm5jw1w,1,26,3,10,,,,,,,,2
2024-05-14T09:03:08.493261,1715677388.4932747,acceptance,ykdzfw2h,275e2ui1,1,18,2,6,,,,,,,,3
2024-05-14T09:03:10.741323,1715677390.7413368,acceptance,ykdzfw2h,iw6538t5,1,6,1,2,,,,,,,,3
2024-05-14T09:03:14.556524,1715677394.5565374,acceptance,ykdzfw2h,maxxa0b9,1,10,2,4,,,,,,,,7
2024-05-14T09:03:15.455370,1715677395.4553845,acceptance,ykdzfw2h,10hb91v0,1,14,1,6,,,,,,,,3
2024-05-14T09:03:15.903507,1715677395.9035184,acceptance,ykdzfw2h,gb3p43e3,1,28,2,10,,,,,,,,2
2024-05-14T09:03:25.894320,1715677405.894332,acceptance,ykdzfw2h,6ul57k0b,1,8,3,4,,,,,,,,4
2024-05-14T09:03:37.981937,1715677417.9819486,acceptance,ykdzfw2h,275e2ui1,1,18,2,6,,,,,,,,4
2024-05-14T09:03:44.307691,1715677424.3077035,acceptance,ykdzfw2h,zu5rxx67,1,2,3,2,,,,,,,,3
2024-05-14T09:03:48.429359,1715677428.4293728,acceptance,ykdzfw2h,7ikal8ir,1,12,1,4,,,,,,,,8
2024-05-14T09:03:49.753248,1715677429.7532585,acceptance,ykdzfw2h,caq3vqi1,1,24,1,8,,,,,,,,4
2024-05-14T09:03:57.912309,1715677437.9123194,acceptance,ykdzfw2h,u53icqui,1,31,3,11,,,,,,,,3
2024-05-14T09:03:58.616818,1715677438.6168296,acceptance,ykdzfw2h,aykj1i6i,1,30,1,10,,,,,,,,5
2024-05-14T09:04:01.990483,1715677441.990494,acceptance,ykdzfw2h,wr4oyk0w,1,16,3,6,,,,,,,,4
2024-05-14T09:04:16.088469,1715677456.0884807,acceptance,ykdzfw2h,275e2ui1,1,18,2,6,,,,,,,,5
2024-05-14T09:04:20.718135,1715677460.7181458,acceptance,ykdzfw2h,10hb91v0,1,14,1,6,,,,,,,,5
2024-05-14T09:04:23.136316,1715677463.1363277,acceptance,ykdzfw2h,7ikal8ir,1,12,1,4,,,,,,,,1
2024-05-14T09:04:33.909068,1715677473.9090788,acceptance,ykdzfw2h,wr4oyk0w,1,16,3,6,,,,,,,,5
2024-05-14T09:04:35.595186,1715677475.595197,acceptance,ykdzfw2h,6ul57k0b,1,8,3,4,,,,,,,,1
2024-05-14T09:04:42.918250,1715677482.9182622,acceptance,ykdzfw2h,maxxa0b9,1,10,2,4,,,,,,,,1
2024-05-14T09:04:43.473107,1715677483.4731202,acceptance,ykdzfw2h,5ubvbqrt,1,35,2,11,,,,,,,,3
2024-05-14T09:04:43.951947,1715677483.951958,acceptance,ykdzfw2h,aykj1i6i,1,30,1,10,,,,,,,,6
2024-05-14T09:04:47.353802,1715677487.353812,acceptance,ykdzfw2h,7ikal8ir,1,12,1,4,,,,,,,,1
2024-05-14T09:04:51.800318,1715677491.80033,acceptance,ykdzfw2h,69gxbqoq,1,17,2,5,,,,,,,,1
2024-05-14T09:04:53.106837,1715677493.1068478,acceptance,ykdzfw2h,6ul57k0b,1,8,3,4,,,,,,,,1
2024-05-14T09:05:02.988516,1715677502.9885287,acceptance,ykdzfw2h,69gxbqoq,1,17,2,5,,,,,,,,1
